file_id,rt,stimulus,key_press,trial_type,trial_index,time_elapsed,internal_node_id,premise_one,premise_two,p1_outcome,p2_outcome,p1_sentence,p2_sentence,q1,q2,q3,q4,trial_number,q1_type,q2_type,q3_type,q4_type,response,question_order
data_2019-09-03-13-16-47_zo6z1ejiuj,960.0000000000001,Welcome to the experiment. Press any key to begin.,32,html-keyboard-response,0,960,0.0-0.0,NA,NA,NA,NA,NA,NA,NA,NA,NA,NA,NA,NA,NA,NA,NA,NA,NA
data_2019-09-03-13-16-47_zo6z1ejiuj,2024.0000000000005,"<p>In this task, you will read the outcomes of drug trials and then judge drug efficacies</p><p>Press any key to begin.</p>",32,html-keyboard-response,1,2985,0.0-1.0,NA,NA,NA,NA,NA,NA,NA,NA,NA,NA,NA,NA,NA,NA,NA,NA,NA
data_2019-09-03-13-16-47_zo6z1ejiuj,null,+,null,html-keyboard-response,2,4488,0.0-2.0-0.0,NA,NA,NA,NA,NA,NA,NA,NA,NA,NA,NA,NA,NA,NA,NA,NA,NA
data_2019-09-03-13-16-47_zo6z1ejiuj,null,<p>People who took Lorataminophen were not cured</p>,null,html-keyboard-response,3,9490,0.0-2.0-1.0,A-,null,FALSE,null,People who took Lorataminophen were not cured,null,null,null,null,How well does Lorataminophen work?,10,3,4,2,1,NA,NA
data_2019-09-03-13-16-47_zo6z1ejiuj,null,<p>null</p>,NA,html-slider-response,4,9498,0.0-2.0-2.0,A-,null,FALSE,null,People who took Lorataminophen were not cured,null,null,null,null,How well does Lorataminophen work?,10,3,4,2,1,null,q1
data_2019-09-03-13-16-47_zo6z1ejiuj,null,<p>null</p>,NA,html-slider-response,5,9501,0.0-2.0-3.0,A-,null,FALSE,null,People who took Lorataminophen were not cured,null,null,null,null,How well does Lorataminophen work?,10,3,4,2,1,null,q2
data_2019-09-03-13-16-47_zo6z1ejiuj,null,<p>null</p>,NA,html-slider-response,6,9517,0.0-2.0-4.0,A-,null,FALSE,null,People who took Lorataminophen were not cured,null,null,null,null,How well does Lorataminophen work?,10,3,4,2,1,null,q3
data_2019-09-03-13-16-47_zo6z1ejiuj,4226,<p>How well does Lorataminophen work?</p>,NA,html-slider-response,7,13745,0.0-2.0-5.0,A-,null,FALSE,null,People who took Lorataminophen were not cured,null,null,null,null,How well does Lorataminophen work?,10,3,4,2,1,-88,q4
data_2019-09-03-13-16-47_zo6z1ejiuj,null,+,null,html-keyboard-response,8,14246,0.0-2.0-0.1,NA,NA,NA,NA,NA,NA,NA,NA,NA,NA,NA,NA,NA,NA,NA,NA,NA
data_2019-09-03-13-16-47_zo6z1ejiuj,null,<p>People who took Xazolam and Cyclobalta were cured</p><p>People who took Xazolam were not cured</p>,null,html-keyboard-response,9,19247,0.0-2.0-1.1,AB+,A-,TRUE,FALSE,People who took Xazolam and Cyclobalta were cured,People who took Xazolam were not cured,How well does Xazolam work?,null,How well does Cyclobalta work?,How well does the combination of Xazolam and Cyclobalta work?,7,1,4,2,3,NA,NA
data_2019-09-03-13-16-47_zo6z1ejiuj,4614,<p>How well does Xazolam work?</p>,NA,html-slider-response,10,23863,0.0-2.0-2.1,AB+,A-,TRUE,FALSE,People who took Xazolam and Cyclobalta were cured,People who took Xazolam were not cured,How well does Xazolam work?,null,How well does Cyclobalta work?,How well does the combination of Xazolam and Cyclobalta work?,7,1,4,2,3,-46,q1
data_2019-09-03-13-16-47_zo6z1ejiuj,null,<p>null</p>,NA,html-slider-response,11,23866,0.0-2.0-3.1,AB+,A-,TRUE,FALSE,People who took Xazolam and Cyclobalta were cured,People who took Xazolam were not cured,How well does Xazolam work?,null,How well does Cyclobalta work?,How well does the combination of Xazolam and Cyclobalta work?,7,1,4,2,3,null,q2
data_2019-09-03-13-16-47_zo6z1ejiuj,2767,<p>How well does Cyclobalta work?</p>,NA,html-slider-response,12,26633,0.0-2.0-4.1,AB+,A-,TRUE,FALSE,People who took Xazolam and Cyclobalta were cured,People who took Xazolam were not cured,How well does Xazolam work?,null,How well does Cyclobalta work?,How well does the combination of Xazolam and Cyclobalta work?,7,1,4,2,3,-47,q3
data_2019-09-03-13-16-47_zo6z1ejiuj,2558,<p>How well does the combination of Xazolam and Cyclobalta work?</p>,NA,html-slider-response,13,29192,0.0-2.0-5.1,AB+,A-,TRUE,FALSE,People who took Xazolam and Cyclobalta were cured,People who took Xazolam were not cured,How well does Xazolam work?,null,How well does Cyclobalta work?,How well does the combination of Xazolam and Cyclobalta work?,7,1,4,2,3,89,q4
data_2019-09-03-13-16-47_zo6z1ejiuj,null,+,null,html-keyboard-response,14,29694,0.0-2.0-0.2,NA,NA,NA,NA,NA,NA,NA,NA,NA,NA,NA,NA,NA,NA,NA,NA,NA
data_2019-09-03-13-16-47_zo6z1ejiuj,null,<p>People who took Acetadol were not cured</p><p>People who took Doxydol and Oxypril were not cured</p>,null,html-keyboard-response,15,34696,0.0-2.0-1.2,C-,AB-,FALSE,FALSE,People who took Acetadol were not cured,People who took Doxydol and Oxypril were not cured,How well does Oxypril work?,How well does Acetadol work?,How well does Doxydol work?,How well does the combination of Doxydol and Oxypril work?,18,3,1,2,4,NA,NA
data_2019-09-03-13-16-47_zo6z1ejiuj,5683,<p>How well does Oxypril work?</p>,NA,html-slider-response,16,40380,0.0-2.0-2.2,C-,AB-,FALSE,FALSE,People who took Acetadol were not cured,People who took Doxydol and Oxypril were not cured,How well does Oxypril work?,How well does Acetadol work?,How well does Doxydol work?,How well does the combination of Doxydol and Oxypril work?,18,3,1,2,4,-82,q1
data_2019-09-03-13-16-47_zo6z1ejiuj,2522,<p>How well does Acetadol work?</p>,NA,html-slider-response,17,42902,0.0-2.0-3.2,C-,AB-,FALSE,FALSE,People who took Acetadol were not cured,People who took Doxydol and Oxypril were not cured,How well does Oxypril work?,How well does Acetadol work?,How well does Doxydol work?,How well does the combination of Doxydol and Oxypril work?,18,3,1,2,4,-86,q2
data_2019-09-03-13-16-47_zo6z1ejiuj,2509,<p>How well does Doxydol work?</p>,NA,html-slider-response,18,45411,0.0-2.0-4.2,C-,AB-,FALSE,FALSE,People who took Acetadol were not cured,People who took Doxydol and Oxypril were not cured,How well does Oxypril work?,How well does Acetadol work?,How well does Doxydol work?,How well does the combination of Doxydol and Oxypril work?,18,3,1,2,4,-81,q3
data_2019-09-03-13-16-47_zo6z1ejiuj,4262,<p>How well does the combination of Doxydol and Oxypril work?</p>,NA,html-slider-response,19,49673,0.0-2.0-5.2,C-,AB-,FALSE,FALSE,People who took Acetadol were not cured,People who took Doxydol and Oxypril were not cured,How well does Oxypril work?,How well does Acetadol work?,How well does Doxydol work?,How well does the combination of Doxydol and Oxypril work?,18,3,1,2,4,-79,q4
data_2019-09-03-13-16-47_zo6z1ejiuj,null,+,null,html-keyboard-response,20,50174,0.0-2.0-0.3,NA,NA,NA,NA,NA,NA,NA,NA,NA,NA,NA,NA,NA,NA,NA,NA,NA
data_2019-09-03-13-16-47_zo6z1ejiuj,null,<p>People who took Clindaminophen were cured</p>,null,html-keyboard-response,21,55177,0.0-2.0-1.3,A+,null,TRUE,null,People who took Clindaminophen were cured,null,How well does Clindaminophen work?,null,null,null,9,1,4,2,3,NA,NA
data_2019-09-03-13-16-47_zo6z1ejiuj,3855,<p>How well does Clindaminophen work?</p>,NA,html-slider-response,22,59033,0.0-2.0-2.3,A+,null,TRUE,null,People who took Clindaminophen were cured,null,How well does Clindaminophen work?,null,null,null,9,1,4,2,3,90,q1
data_2019-09-03-13-16-47_zo6z1ejiuj,null,<p>null</p>,NA,html-slider-response,23,59036,0.0-2.0-3.3,A+,null,TRUE,null,People who took Clindaminophen were cured,null,How well does Clindaminophen work?,null,null,null,9,1,4,2,3,null,q2
data_2019-09-03-13-16-47_zo6z1ejiuj,null,<p>null</p>,NA,html-slider-response,24,59050,0.0-2.0-4.3,A+,null,TRUE,null,People who took Clindaminophen were cured,null,How well does Clindaminophen work?,null,null,null,9,1,4,2,3,null,q3
data_2019-09-03-13-16-47_zo6z1ejiuj,null,<p>null</p>,NA,html-slider-response,25,59054,0.0-2.0-5.3,A+,null,TRUE,null,People who took Clindaminophen were cured,null,How well does Clindaminophen work?,null,null,null,9,1,4,2,3,null,q4
data_2019-09-03-13-16-47_zo6z1ejiuj,null,+,null,html-keyboard-response,26,59556,0.0-2.0-0.4,NA,NA,NA,NA,NA,NA,NA,NA,NA,NA,NA,NA,NA,NA,NA,NA,NA
data_2019-09-03-13-16-47_zo6z1ejiuj,null,<p>People who took Lorazeprazole and Wellbufloxacin were not cured</p>,null,html-keyboard-response,27,64558,0.0-2.0-1.4,AB-,null,FALSE,null,People who took Lorazeprazole and Wellbufloxacin were not cured,null,How well does the combination of Lorazeprazole and Wellbufloxacin work?,How well does Wellbufloxacin work?,How well does Lorazeprazole work?,null,12,3,2,1,4,NA,NA
data_2019-09-03-13-16-47_zo6z1ejiuj,4662.000000000007,<p>How well does the combination of Lorazeprazole and Wellbufloxacin work?</p>,NA,html-slider-response,28,69222,0.0-2.0-2.4,AB-,null,FALSE,null,People who took Lorazeprazole and Wellbufloxacin were not cured,null,How well does the combination of Lorazeprazole and Wellbufloxacin work?,How well does Wellbufloxacin work?,How well does Lorazeprazole work?,null,12,3,2,1,4,85,q1
data_2019-09-03-13-16-47_zo6z1ejiuj,2905,<p>How well does Wellbufloxacin work?</p>,NA,html-slider-response,29,72127,0.0-2.0-3.4,AB-,null,FALSE,null,People who took Lorazeprazole and Wellbufloxacin were not cured,null,How well does the combination of Lorazeprazole and Wellbufloxacin work?,How well does Wellbufloxacin work?,How well does Lorazeprazole work?,null,12,3,2,1,4,35,q2
data_2019-09-03-13-16-47_zo6z1ejiuj,3136,<p>How well does Lorazeprazole work?</p>,NA,html-slider-response,30,75265,0.0-2.0-4.4,AB-,null,FALSE,null,People who took Lorazeprazole and Wellbufloxacin were not cured,null,How well does the combination of Lorazeprazole and Wellbufloxacin work?,How well does Wellbufloxacin work?,How well does Lorazeprazole work?,null,12,3,2,1,4,34,q3
data_2019-09-03-13-16-47_zo6z1ejiuj,null,<p>null</p>,NA,html-slider-response,31,75268,0.0-2.0-5.4,AB-,null,FALSE,null,People who took Lorazeprazole and Wellbufloxacin were not cured,null,How well does the combination of Lorazeprazole and Wellbufloxacin work?,How well does Wellbufloxacin work?,How well does Lorazeprazole work?,null,12,3,2,1,4,null,q4
data_2019-09-03-13-16-47_zo6z1ejiuj,null,+,null,html-keyboard-response,32,75770,0.0-2.0-0.5,NA,NA,NA,NA,NA,NA,NA,NA,NA,NA,NA,NA,NA,NA,NA,NA,NA
data_2019-09-03-13-16-47_zo6z1ejiuj,null,<p>People who took Losadeine and Metfoxen were not cured</p><p>People who took Losadeine were not cured</p>,null,html-keyboard-response,33,80772,0.0-2.0-1.5,AB-,A-,FALSE,FALSE,People who took Losadeine and Metfoxen were not cured,People who took Losadeine were not cured,How well does Losadeine work?,How well does the combination of Losadeine and Metfoxen work?,null,How well does Metfoxen work?,8,1,3,4,2,NA,NA
data_2019-09-03-13-16-47_zo6z1ejiuj,3326,<p>How well does Losadeine work?</p>,NA,html-slider-response,34,84099,0.0-2.0-2.5,AB-,A-,FALSE,FALSE,People who took Losadeine and Metfoxen were not cured,People who took Losadeine were not cured,How well does Losadeine work?,How well does the combination of Losadeine and Metfoxen work?,null,How well does Metfoxen work?,8,1,3,4,2,0,q1
data_2019-09-03-13-16-47_zo6z1ejiuj,4149,<p>How well does the combination of Losadeine and Metfoxen work?</p>,NA,html-slider-response,35,88248,0.0-2.0-3.5,AB-,A-,FALSE,FALSE,People who took Losadeine and Metfoxen were not cured,People who took Losadeine were not cured,How well does Losadeine work?,How well does the combination of Losadeine and Metfoxen work?,null,How well does Metfoxen work?,8,1,3,4,2,-54,q2
data_2019-09-03-13-16-47_zo6z1ejiuj,null,<p>null</p>,NA,html-slider-response,36,88251,0.0-2.0-4.5,AB-,A-,FALSE,FALSE,People who took Losadeine and Metfoxen were not cured,People who took Losadeine were not cured,How well does Losadeine work?,How well does the combination of Losadeine and Metfoxen work?,null,How well does Metfoxen work?,8,1,3,4,2,null,q3
data_2019-09-03-13-16-47_zo6z1ejiuj,2518,<p>How well does Metfoxen work?</p>,NA,html-slider-response,37,90770,0.0-2.0-5.5,AB-,A-,FALSE,FALSE,People who took Losadeine and Metfoxen were not cured,People who took Losadeine were not cured,How well does Losadeine work?,How well does the combination of Losadeine and Metfoxen work?,null,How well does Metfoxen work?,8,1,3,4,2,0,q4
data_2019-09-03-13-16-47_zo6z1ejiuj,null,+,null,html-keyboard-response,38,91271,0.0-2.0-0.6,NA,NA,NA,NA,NA,NA,NA,NA,NA,NA,NA,NA,NA,NA,NA,NA,NA
data_2019-09-03-13-16-47_zo6z1ejiuj,null,<p>People who took Lexathiazide were not cured</p><p>People who took Lexathiazide and Tramabalta were cured</p>,null,html-keyboard-response,39,96272,0.0-2.0-1.6,A-,AB+,FALSE,TRUE,People who took Lexathiazide were not cured,People who took Lexathiazide and Tramabalta were cured,null,How well does Lexathiazide work?,How well does the combination of Lexathiazide and Tramabalta work?,How well does Tramabalta work?,3,4,1,3,2,NA,NA
data_2019-09-03-13-16-47_zo6z1ejiuj,null,<p>null</p>,NA,html-slider-response,40,96277,0.0-2.0-2.6,A-,AB+,FALSE,TRUE,People who took Lexathiazide were not cured,People who took Lexathiazide and Tramabalta were cured,null,How well does Lexathiazide work?,How well does the combination of Lexathiazide and Tramabalta work?,How well does Tramabalta work?,3,4,1,3,2,null,q1
data_2019-09-03-13-16-47_zo6z1ejiuj,3167,<p>How well does Lexathiazide work?</p>,NA,html-slider-response,41,99445,0.0-2.0-3.6,A-,AB+,FALSE,TRUE,People who took Lexathiazide were not cured,People who took Lexathiazide and Tramabalta were cured,null,How well does Lexathiazide work?,How well does the combination of Lexathiazide and Tramabalta work?,How well does Tramabalta work?,3,4,1,3,2,-48,q2
data_2019-09-03-13-16-47_zo6z1ejiuj,2646,<p>How well does the combination of Lexathiazide and Tramabalta work?</p>,NA,html-slider-response,42,102092,0.0-2.0-4.6,A-,AB+,FALSE,TRUE,People who took Lexathiazide were not cured,People who took Lexathiazide and Tramabalta were cured,null,How well does Lexathiazide work?,How well does the combination of Lexathiazide and Tramabalta work?,How well does Tramabalta work?,3,4,1,3,2,56,q3
data_2019-09-03-13-16-47_zo6z1ejiuj,2456,<p>How well does Tramabalta work?</p>,NA,html-slider-response,43,104549,0.0-2.0-5.6,A-,AB+,FALSE,TRUE,People who took Lexathiazide were not cured,People who took Lexathiazide and Tramabalta were cured,null,How well does Lexathiazide work?,How well does the combination of Lexathiazide and Tramabalta work?,How well does Tramabalta work?,3,4,1,3,2,34,q4
data_2019-09-03-13-16-47_zo6z1ejiuj,null,+,null,html-keyboard-response,44,105050,0.0-2.0-0.7,NA,NA,NA,NA,NA,NA,NA,NA,NA,NA,NA,NA,NA,NA,NA,NA,NA
data_2019-09-03-13-16-47_zo6z1ejiuj,null,<p>People who took Acetapentin and Viafloxacin were not cured</p><p>People who took Losadipine were not cured</p>,null,html-keyboard-response,45,110052,0.0-2.0-1.7,AB-,C-,FALSE,FALSE,People who took Acetapentin and Viafloxacin were not cured,People who took Losadipine were not cured,How well does the combination of Acetapentin and Viafloxacin work?,null,How well does Acetapentin work?,How well does Viafloxacin work?,22,3,4,1,2,NA,NA
data_2019-09-03-13-16-47_zo6z1ejiuj,3584,<p>How well does the combination of Acetapentin and Viafloxacin work?</p>,NA,html-slider-response,46,113637,0.0-2.0-2.7,AB-,C-,FALSE,FALSE,People who took Acetapentin and Viafloxacin were not cured,People who took Losadipine were not cured,How well does the combination of Acetapentin and Viafloxacin work?,null,How well does Acetapentin work?,How well does Viafloxacin work?,22,3,4,1,2,-86,q1
data_2019-09-03-13-16-47_zo6z1ejiuj,null,<p>null</p>,NA,html-slider-response,47,113640,0.0-2.0-3.7,AB-,C-,FALSE,FALSE,People who took Acetapentin and Viafloxacin were not cured,People who took Losadipine were not cured,How well does the combination of Acetapentin and Viafloxacin work?,null,How well does Acetapentin work?,How well does Viafloxacin work?,22,3,4,1,2,null,q2
data_2019-09-03-13-16-47_zo6z1ejiuj,3290,<p>How well does Acetapentin work?</p>,NA,html-slider-response,48,116930,0.0-2.0-4.7,AB-,C-,FALSE,FALSE,People who took Acetapentin and Viafloxacin were not cured,People who took Losadipine were not cured,How well does the combination of Acetapentin and Viafloxacin work?,null,How well does Acetapentin work?,How well does Viafloxacin work?,22,3,4,1,2,-48,q3
data_2019-09-03-13-16-47_zo6z1ejiuj,2590,<p>How well does Viafloxacin work?</p>,NA,html-slider-response,49,119521,0.0-2.0-5.7,AB-,C-,FALSE,FALSE,People who took Acetapentin and Viafloxacin were not cured,People who took Losadipine were not cured,How well does the combination of Acetapentin and Viafloxacin work?,null,How well does Acetapentin work?,How well does Viafloxacin work?,22,3,4,1,2,-47,q4
data_2019-09-03-13-16-47_zo6z1ejiuj,null,+,null,html-keyboard-response,50,120021,0.0-2.0-0.8,NA,NA,NA,NA,NA,NA,NA,NA,NA,NA,NA,NA,NA,NA,NA,NA,NA
data_2019-09-03-13-16-47_zo6z1ejiuj,null,<p>People who took Napropam were cured</p>,null,html-keyboard-response,51,125023,0.0-2.0-1.8,C+,null,TRUE,null,People who took Napropam were cured,null,null,null,null,How well does Napropam work?,13,3,4,2,1,NA,NA
data_2019-09-03-13-16-47_zo6z1ejiuj,null,<p>null</p>,NA,html-slider-response,52,125028,0.0-2.0-2.8,C+,null,TRUE,null,People who took Napropam were cured,null,null,null,null,How well does Napropam work?,13,3,4,2,1,null,q1
data_2019-09-03-13-16-47_zo6z1ejiuj,null,<p>null</p>,NA,html-slider-response,53,125031,0.0-2.0-3.8,C+,null,TRUE,null,People who took Napropam were cured,null,null,null,null,How well does Napropam work?,13,3,4,2,1,null,q2
data_2019-09-03-13-16-47_zo6z1ejiuj,null,<p>null</p>,NA,html-slider-response,54,125050,0.0-2.0-4.8,C+,null,TRUE,null,People who took Napropam were cured,null,null,null,null,How well does Napropam work?,13,3,4,2,1,null,q3
data_2019-09-03-13-16-47_zo6z1ejiuj,3308.999999999971,<p>How well does Napropam work?</p>,NA,html-slider-response,55,128361,0.0-2.0-5.8,C+,null,TRUE,null,People who took Napropam were cured,null,null,null,null,How well does Napropam work?,13,3,4,2,1,91,q4
data_2019-09-03-13-16-47_zo6z1ejiuj,null,+,null,html-keyboard-response,56,128861,0.0-2.0-0.9,NA,NA,NA,NA,NA,NA,NA,NA,NA,NA,NA,NA,NA,NA,NA,NA,NA
data_2019-09-03-13-16-47_zo6z1ejiuj,null,<p>People who took Lexastatin and Atorvadone were cured</p><p>People who took Lyritrin were cured</p>,null,html-keyboard-response,57,133862,0.0-2.0-1.9,AB+,C+,TRUE,TRUE,People who took Lexastatin and Atorvadone were cured,People who took Lyritrin were cured,How well does Atorvadone work?,null,How well does the combination of Lexastatin and Atorvadone work?,How well does Lexastatin work?,19,2,4,3,1,NA,NA
data_2019-09-03-13-16-47_zo6z1ejiuj,7790,<p>How well does Atorvadone work?</p>,NA,html-slider-response,58,141654,0.0-2.0-2.9,AB+,C+,TRUE,TRUE,People who took Lexastatin and Atorvadone were cured,People who took Lyritrin were cured,How well does Atorvadone work?,null,How well does the combination of Lexastatin and Atorvadone work?,How well does Lexastatin work?,19,2,4,3,1,41,q1
data_2019-09-03-13-16-47_zo6z1ejiuj,null,<p>null</p>,NA,html-slider-response,59,141658,0.0-2.0-3.9,AB+,C+,TRUE,TRUE,People who took Lexastatin and Atorvadone were cured,People who took Lyritrin were cured,How well does Atorvadone work?,null,How well does the combination of Lexastatin and Atorvadone work?,How well does Lexastatin work?,19,2,4,3,1,null,q2
data_2019-09-03-13-16-47_zo6z1ejiuj,2792,<p>How well does the combination of Lexastatin and Atorvadone work?</p>,NA,html-slider-response,60,144450,0.0-2.0-4.9,AB+,C+,TRUE,TRUE,People who took Lexastatin and Atorvadone were cured,People who took Lyritrin were cured,How well does Atorvadone work?,null,How well does the combination of Lexastatin and Atorvadone work?,How well does Lexastatin work?,19,2,4,3,1,77,q3
data_2019-09-03-13-16-47_zo6z1ejiuj,2864,<p>How well does Lexastatin work?</p>,NA,html-slider-response,61,147315,0.0-2.0-5.9,AB+,C+,TRUE,TRUE,People who took Lexastatin and Atorvadone were cured,People who took Lyritrin were cured,How well does Atorvadone work?,null,How well does the combination of Lexastatin and Atorvadone work?,How well does Lexastatin work?,19,2,4,3,1,45,q4
data_2019-09-03-13-16-47_zo6z1ejiuj,null,+,null,html-keyboard-response,62,147816,0.0-2.0-0.10,NA,NA,NA,NA,NA,NA,NA,NA,NA,NA,NA,NA,NA,NA,NA,NA,NA
data_2019-09-03-13-16-47_zo6z1ejiuj,null,<p>People who took Lorazefloxacin and Citalozolam were cured</p><p>People who took Lorazefloxacin were cured</p>,null,html-keyboard-response,63,152818,0.0-2.0-1.10,AB+,A+,TRUE,TRUE,People who took Lorazefloxacin and Citalozolam were cured,People who took Lorazefloxacin were cured,How well does the combination of Lorazefloxacin and Citalozolam work?,null,How well does Lorazefloxacin work?,How well does Citalozolam work?,5,3,4,1,2,NA,NA
data_2019-09-03-13-16-47_zo6z1ejiuj,3466,<p>How well does the combination of Lorazefloxacin and Citalozolam work?</p>,NA,html-slider-response,64,156285,0.0-2.0-2.10,AB+,A+,TRUE,TRUE,People who took Lorazefloxacin and Citalozolam were cured,People who took Lorazefloxacin were cured,How well does the combination of Lorazefloxacin and Citalozolam work?,null,How well does Lorazefloxacin work?,How well does Citalozolam work?,5,3,4,1,2,84,q1
data_2019-09-03-13-16-47_zo6z1ejiuj,null,<p>null</p>,NA,html-slider-response,65,156288,0.0-2.0-3.10,AB+,A+,TRUE,TRUE,People who took Lorazefloxacin and Citalozolam were cured,People who took Lorazefloxacin were cured,How well does the combination of Lorazefloxacin and Citalozolam work?,null,How well does Lorazefloxacin work?,How well does Citalozolam work?,5,3,4,1,2,null,q2
data_2019-09-03-13-16-47_zo6z1ejiuj,2932,<p>How well does Lorazefloxacin work?</p>,NA,html-slider-response,66,159220,0.0-2.0-4.10,AB+,A+,TRUE,TRUE,People who took Lorazefloxacin and Citalozolam were cured,People who took Lorazefloxacin were cured,How well does the combination of Lorazefloxacin and Citalozolam work?,null,How well does Lorazefloxacin work?,How well does Citalozolam work?,5,3,4,1,2,34,q3
data_2019-09-03-13-16-47_zo6z1ejiuj,2194.000000000029,<p>How well does Citalozolam work?</p>,NA,html-slider-response,67,161414,0.0-2.0-5.10,AB+,A+,TRUE,TRUE,People who took Lorazefloxacin and Citalozolam were cured,People who took Lorazefloxacin were cured,How well does the combination of Lorazefloxacin and Citalozolam work?,null,How well does Lorazefloxacin work?,How well does Citalozolam work?,5,3,4,1,2,22,q4
data_2019-09-03-13-16-47_zo6z1ejiuj,null,+,null,html-keyboard-response,68,161916,0.0-2.0-0.11,NA,NA,NA,NA,NA,NA,NA,NA,NA,NA,NA,NA,NA,NA,NA,NA,NA
data_2019-09-03-13-16-47_zo6z1ejiuj,null,<p>People who took Metfodeine and Wellbucillin were not cured</p><p>People who took Metfodeine were cured</p>,null,html-keyboard-response,69,166912,0.0-2.0-1.11,AB-,A+,FALSE,TRUE,People who took Metfodeine and Wellbucillin were not cured,People who took Metfodeine were cured,How well does Wellbucillin work?,How well does Metfodeine work?,How well does the combination of Metfodeine and Wellbucillin work?,null,6,2,1,3,4,NA,NA
data_2019-09-03-13-16-47_zo6z1ejiuj,2132,<p>How well does Wellbucillin work?</p>,NA,html-slider-response,70,169043,0.0-2.0-2.11,AB-,A+,FALSE,TRUE,People who took Metfodeine and Wellbucillin were not cured,People who took Metfodeine were cured,How well does Wellbucillin work?,How well does Metfodeine work?,How well does the combination of Metfodeine and Wellbucillin work?,null,6,2,1,3,4,0,q1
data_2019-09-03-13-16-47_zo6z1ejiuj,2868,<p>How well does Metfodeine work?</p>,NA,html-slider-response,71,171910,0.0-2.0-3.11,AB-,A+,FALSE,TRUE,People who took Metfodeine and Wellbucillin were not cured,People who took Metfodeine were cured,How well does Wellbucillin work?,How well does Metfodeine work?,How well does the combination of Metfodeine and Wellbucillin work?,null,6,2,1,3,4,62,q2
data_2019-09-03-13-16-47_zo6z1ejiuj,2678.999999999971,<p>How well does the combination of Metfodeine and Wellbucillin work?</p>,NA,html-slider-response,72,174588,0.0-2.0-4.11,AB-,A+,FALSE,TRUE,People who took Metfodeine and Wellbucillin were not cured,People who took Metfodeine were cured,How well does Wellbucillin work?,How well does Metfodeine work?,How well does the combination of Metfodeine and Wellbucillin work?,null,6,2,1,3,4,-82,q3
data_2019-09-03-13-16-47_zo6z1ejiuj,null,<p>null</p>,NA,html-slider-response,73,174591,0.0-2.0-5.11,AB-,A+,FALSE,TRUE,People who took Metfodeine and Wellbucillin were not cured,People who took Metfodeine were cured,How well does Wellbucillin work?,How well does Metfodeine work?,How well does the combination of Metfodeine and Wellbucillin work?,null,6,2,1,3,4,null,q4
data_2019-09-03-13-16-47_zo6z1ejiuj,null,+,null,html-keyboard-response,74,175092,0.0-2.0-0.12,NA,NA,NA,NA,NA,NA,NA,NA,NA,NA,NA,NA,NA,NA,NA,NA,NA
data_2019-09-03-13-16-47_zo6z1ejiuj,null,<p>People who took Doxyloft were cured</p><p>People who took Clonapam and Vialoft were not cured</p>,null,html-keyboard-response,75,180092,0.0-2.0-1.12,C+,AB-,TRUE,FALSE,People who took Doxyloft were cured,People who took Clonapam and Vialoft were not cured,How well does Vialoft work?,How well does Doxyloft work?,How well does the combination of Clonapam and Vialoft work?,How well does Clonapam work?,16,3,1,4,2,NA,NA
data_2019-09-03-13-16-47_zo6z1ejiuj,2088,<p>How well does Vialoft work?</p>,NA,html-slider-response,76,182181,0.0-2.0-2.12,C+,AB-,TRUE,FALSE,People who took Doxyloft were cured,People who took Clonapam and Vialoft were not cured,How well does Vialoft work?,How well does Doxyloft work?,How well does the combination of Clonapam and Vialoft work?,How well does Clonapam work?,16,3,1,4,2,0,q1
data_2019-09-03-13-16-47_zo6z1ejiuj,3458,<p>How well does Doxyloft work?</p>,NA,html-slider-response,77,185639,0.0-2.0-3.12,C+,AB-,TRUE,FALSE,People who took Doxyloft were cured,People who took Clonapam and Vialoft were not cured,How well does Vialoft work?,How well does Doxyloft work?,How well does the combination of Clonapam and Vialoft work?,How well does Clonapam work?,16,3,1,4,2,59,q2
data_2019-09-03-13-16-47_zo6z1ejiuj,2857,<p>How well does the combination of Clonapam and Vialoft work?</p>,NA,html-slider-response,78,188495,0.0-2.0-4.12,C+,AB-,TRUE,FALSE,People who took Doxyloft were cured,People who took Clonapam and Vialoft were not cured,How well does Vialoft work?,How well does Doxyloft work?,How well does the combination of Clonapam and Vialoft work?,How well does Clonapam work?,16,3,1,4,2,-64,q3
data_2019-09-03-13-16-47_zo6z1ejiuj,1593,<p>How well does Clonapam work?</p>,NA,html-slider-response,79,190089,0.0-2.0-5.12,C+,AB-,TRUE,FALSE,People who took Doxyloft were cured,People who took Clonapam and Vialoft were not cured,How well does Vialoft work?,How well does Doxyloft work?,How well does the combination of Clonapam and Vialoft work?,How well does Clonapam work?,16,3,1,4,2,0,q4
data_2019-09-03-13-16-47_zo6z1ejiuj,null,+,null,html-keyboard-response,80,190589,0.0-2.0-0.13,NA,NA,NA,NA,NA,NA,NA,NA,NA,NA,NA,NA,NA,NA,NA,NA,NA
data_2019-09-03-13-16-47_zo6z1ejiuj,null,<p>People who took Clonaprolol were not cured</p><p>People who took Clonaprolol and Zotan were not cured</p>,null,html-keyboard-response,81,195590,0.0-2.0-1.13,A-,AB-,FALSE,FALSE,People who took Clonaprolol were not cured,People who took Clonaprolol and Zotan were not cured,How well does the combination of Clonaprolol and Zotan work?,How well does Zotan work?,null,How well does Clonaprolol work?,4,3,2,4,1,NA,NA
data_2019-09-03-13-16-47_zo6z1ejiuj,5133,<p>How well does the combination of Clonaprolol and Zotan work?</p>,NA,html-slider-response,82,200724,0.0-2.0-2.13,A-,AB-,FALSE,FALSE,People who took Clonaprolol were not cured,People who took Clonaprolol and Zotan were not cured,How well does the combination of Clonaprolol and Zotan work?,How well does Zotan work?,null,How well does Clonaprolol work?,4,3,2,4,1,47,q1
data_2019-09-03-13-16-47_zo6z1ejiuj,3071,<p>How well does Zotan work?</p>,NA,html-slider-response,83,203796,0.0-2.0-3.13,A-,AB-,FALSE,FALSE,People who took Clonaprolol were not cured,People who took Clonaprolol and Zotan were not cured,How well does the combination of Clonaprolol and Zotan work?,How well does Zotan work?,null,How well does Clonaprolol work?,4,3,2,4,1,-3,q2
data_2019-09-03-13-16-47_zo6z1ejiuj,null,<p>null</p>,NA,html-slider-response,84,203799,0.0-2.0-4.13,A-,AB-,FALSE,FALSE,People who took Clonaprolol were not cured,People who took Clonaprolol and Zotan were not cured,How well does the combination of Clonaprolol and Zotan work?,How well does Zotan work?,null,How well does Clonaprolol work?,4,3,2,4,1,null,q3
data_2019-09-03-13-16-47_zo6z1ejiuj,661.0000000000291,<p>How well does Clonaprolol work?</p>,NA,html-slider-response,85,204461,0.0-2.0-5.13,A-,AB-,FALSE,FALSE,People who took Clonaprolol were not cured,People who took Clonaprolol and Zotan were not cured,How well does the combination of Clonaprolol and Zotan work?,How well does Zotan work?,null,How well does Clonaprolol work?,4,3,2,4,1,0,q4
data_2019-09-03-13-16-47_zo6z1ejiuj,null,+,null,html-keyboard-response,86,204961,0.0-2.0-0.14,NA,NA,NA,NA,NA,NA,NA,NA,NA,NA,NA,NA,NA,NA,NA,NA,NA
data_2019-09-03-13-16-47_zo6z1ejiuj,null,<p>People who took Copram and Lisinosone were not cured</p><p>People who took Pantonax were cured</p>,null,html-keyboard-response,87,209963,0.0-2.0-1.14,AB-,C+,FALSE,TRUE,People who took Copram and Lisinosone were not cured,People who took Pantonax were cured,How well does Copram work?,null,How well does the combination of Copram and Lisinosone work?,How well does Lisinosone work?,20,1,4,3,2,NA,NA
data_2019-09-03-13-16-47_zo6z1ejiuj,4161,<p>How well does Copram work?</p>,NA,html-slider-response,88,214125,0.0-2.0-2.14,AB-,C+,FALSE,TRUE,People who took Copram and Lisinosone were not cured,People who took Pantonax were cured,How well does Copram work?,null,How well does the combination of Copram and Lisinosone work?,How well does Lisinosone work?,20,1,4,3,2,-36,q1
data_2019-09-03-13-16-47_zo6z1ejiuj,null,<p>null</p>,NA,html-slider-response,89,214129,0.0-2.0-3.14,AB-,C+,FALSE,TRUE,People who took Copram and Lisinosone were not cured,People who took Pantonax were cured,How well does Copram work?,null,How well does the combination of Copram and Lisinosone work?,How well does Lisinosone work?,20,1,4,3,2,null,q2
data_2019-09-03-13-16-47_zo6z1ejiuj,3561,<p>How well does the combination of Copram and Lisinosone work?</p>,NA,html-slider-response,90,217690,0.0-2.0-4.14,AB-,C+,FALSE,TRUE,People who took Copram and Lisinosone were not cured,People who took Pantonax were cured,How well does Copram work?,null,How well does the combination of Copram and Lisinosone work?,How well does Lisinosone work?,20,1,4,3,2,-84,q3
data_2019-09-03-13-16-47_zo6z1ejiuj,1942,<p>How well does Lisinosone work?</p>,NA,html-slider-response,91,219632,0.0-2.0-5.14,AB-,C+,FALSE,TRUE,People who took Copram and Lisinosone were not cured,People who took Pantonax were cured,How well does Copram work?,null,How well does the combination of Copram and Lisinosone work?,How well does Lisinosone work?,20,1,4,3,2,0,q4
data_2019-09-03-13-16-47_zo6z1ejiuj,null,+,null,html-keyboard-response,92,220134,0.0-2.0-0.15,NA,NA,NA,NA,NA,NA,NA,NA,NA,NA,NA,NA,NA,NA,NA,NA,NA
data_2019-09-03-13-16-47_zo6z1ejiuj,null,<p>People who took Trazocycline and Lisinopram were cured</p><p>People who took Clindagra were not cured</p>,null,html-keyboard-response,93,225135,0.0-2.0-1.15,AB+,C-,TRUE,FALSE,People who took Trazocycline and Lisinopram were cured,People who took Clindagra were not cured,How well does Trazocycline work?,How well does the combination of Trazocycline and Lisinopram work?,How well does Lisinopram work?,null,21,1,3,2,4,NA,NA
data_2019-09-03-13-16-47_zo6z1ejiuj,6112,<p>How well does Trazocycline work?</p>,NA,html-slider-response,94,231248,0.0-2.0-2.15,AB+,C-,TRUE,FALSE,People who took Trazocycline and Lisinopram were cured,People who took Clindagra were not cured,How well does Trazocycline work?,How well does the combination of Trazocycline and Lisinopram work?,How well does Lisinopram work?,null,21,1,3,2,4,0,q1
data_2019-09-03-13-16-47_zo6z1ejiuj,967.0000000000291,<p>How well does the combination of Trazocycline and Lisinopram work?</p>,NA,html-slider-response,95,232216,0.0-2.0-3.15,AB+,C-,TRUE,FALSE,People who took Trazocycline and Lisinopram were cured,People who took Clindagra were not cured,How well does Trazocycline work?,How well does the combination of Trazocycline and Lisinopram work?,How well does Lisinopram work?,null,21,1,3,2,4,0,q2
data_2019-09-03-13-16-47_zo6z1ejiuj,1010.9999999999709,<p>How well does Lisinopram work?</p>,NA,html-slider-response,96,233227,0.0-2.0-4.15,AB+,C-,TRUE,FALSE,People who took Trazocycline and Lisinopram were cured,People who took Clindagra were not cured,How well does Trazocycline work?,How well does the combination of Trazocycline and Lisinopram work?,How well does Lisinopram work?,null,21,1,3,2,4,0,q3
data_2019-09-03-13-16-47_zo6z1ejiuj,null,<p>null</p>,NA,html-slider-response,97,233230,0.0-2.0-5.15,AB+,C-,TRUE,FALSE,People who took Trazocycline and Lisinopram were cured,People who took Clindagra were not cured,How well does Trazocycline work?,How well does the combination of Trazocycline and Lisinopram work?,How well does Lisinopram work?,null,21,1,3,2,4,null,q4
data_2019-09-03-13-16-47_zo6z1ejiuj,null,+,null,html-keyboard-response,98,233731,0.0-2.0-0.16,NA,NA,NA,NA,NA,NA,NA,NA,NA,NA,NA,NA,NA,NA,NA,NA,NA
data_2019-09-03-13-16-47_zo6z1ejiuj,null,<p>People who took Lorataxicam were not cured</p><p>People who took Melozolam and Lorazecodone were cured</p>,null,html-keyboard-response,99,238733,0.0-2.0-1.16,C-,AB+,FALSE,TRUE,People who took Lorataxicam were not cured,People who took Melozolam and Lorazecodone were cured,How well does the combination of Melozolam and Lorazecodone work?,How well does Lorazecodone work?,How well does Melozolam work?,How well does Lorataxicam work?,17,4,3,2,1,NA,NA
data_2019-09-03-13-16-47_zo6z1ejiuj,3394.999999999971,<p>How well does the combination of Melozolam and Lorazecodone work?</p>,NA,html-slider-response,100,242129,0.0-2.0-2.16,C-,AB+,FALSE,TRUE,People who took Lorataxicam were not cured,People who took Melozolam and Lorazecodone were cured,How well does the combination of Melozolam and Lorazecodone work?,How well does Lorazecodone work?,How well does Melozolam work?,How well does Lorataxicam work?,17,4,3,2,1,88,q1
data_2019-09-03-13-16-47_zo6z1ejiuj,3233,<p>How well does Lorazecodone work?</p>,NA,html-slider-response,101,245363,0.0-2.0-3.16,C-,AB+,FALSE,TRUE,People who took Lorataxicam were not cured,People who took Melozolam and Lorazecodone were cured,How well does the combination of Melozolam and Lorazecodone work?,How well does Lorazecodone work?,How well does Melozolam work?,How well does Lorataxicam work?,17,4,3,2,1,48,q2
data_2019-09-03-13-16-47_zo6z1ejiuj,2001,<p>How well does Melozolam work?</p>,NA,html-slider-response,102,247364,0.0-2.0-4.16,C-,AB+,FALSE,TRUE,People who took Lorataxicam were not cured,People who took Melozolam and Lorazecodone were cured,How well does the combination of Melozolam and Lorazecodone work?,How well does Lorazecodone work?,How well does Melozolam work?,How well does Lorataxicam work?,17,4,3,2,1,41,q3
data_2019-09-03-13-16-47_zo6z1ejiuj,1296,<p>How well does Lorataxicam work?</p>,NA,html-slider-response,103,248660,0.0-2.0-5.16,C-,AB+,FALSE,TRUE,People who took Lorataxicam were not cured,People who took Melozolam and Lorazecodone were cured,How well does the combination of Melozolam and Lorazecodone work?,How well does Lorazecodone work?,How well does Melozolam work?,How well does Lorataxicam work?,17,4,3,2,1,0,q4
data_2019-09-03-13-16-47_zo6z1ejiuj,null,+,null,html-keyboard-response,104,249160,0.0-2.0-0.17,NA,NA,NA,NA,NA,NA,NA,NA,NA,NA,NA,NA,NA,NA,NA,NA,NA
data_2019-09-03-13-16-47_zo6z1ejiuj,null,<p>People who took Amitrixen were cured</p><p>People who took Amitrixen and Cyclocycline were not cured</p>,null,html-keyboard-response,105,254162,0.0-2.0-1.17,A+,AB-,TRUE,FALSE,People who took Amitrixen were cured,People who took Amitrixen and Cyclocycline were not cured,How well does Cyclocycline work?,null,How well does the combination of Amitrixen and Cyclocycline work?,How well does Amitrixen work?,2,2,4,3,1,NA,NA
data_2019-09-03-13-16-47_zo6z1ejiuj,1970.999999999971,<p>How well does Cyclocycline work?</p>,NA,html-slider-response,106,256135,0.0-2.0-2.17,A+,AB-,TRUE,FALSE,People who took Amitrixen were cured,People who took Amitrixen and Cyclocycline were not cured,How well does Cyclocycline work?,null,How well does the combination of Amitrixen and Cyclocycline work?,How well does Amitrixen work?,2,2,4,3,1,0,q1
data_2019-09-03-13-16-47_zo6z1ejiuj,null,<p>null</p>,NA,html-slider-response,107,256138,0.0-2.0-3.17,A+,AB-,TRUE,FALSE,People who took Amitrixen were cured,People who took Amitrixen and Cyclocycline were not cured,How well does Cyclocycline work?,null,How well does the combination of Amitrixen and Cyclocycline work?,How well does Amitrixen work?,2,2,4,3,1,null,q2
data_2019-09-03-13-16-47_zo6z1ejiuj,2479,<p>How well does the combination of Amitrixen and Cyclocycline work?</p>,NA,html-slider-response,108,258617,0.0-2.0-4.17,A+,AB-,TRUE,FALSE,People who took Amitrixen were cured,People who took Amitrixen and Cyclocycline were not cured,How well does Cyclocycline work?,null,How well does the combination of Amitrixen and Cyclocycline work?,How well does Amitrixen work?,2,2,4,3,1,-61,q3
data_2019-09-03-13-16-47_zo6z1ejiuj,2411,<p>How well does Amitrixen work?</p>,NA,html-slider-response,109,261029,0.0-2.0-5.17,A+,AB-,TRUE,FALSE,People who took Amitrixen were cured,People who took Amitrixen and Cyclocycline were not cured,How well does Cyclocycline work?,null,How well does the combination of Amitrixen and Cyclocycline work?,How well does Amitrixen work?,2,2,4,3,1,83,q4
data_2019-09-03-13-16-47_zo6z1ejiuj,null,+,null,html-keyboard-response,110,261530,0.0-2.0-0.18,NA,NA,NA,NA,NA,NA,NA,NA,NA,NA,NA,NA,NA,NA,NA,NA,NA
data_2019-09-03-13-16-47_zo6z1ejiuj,null,<p>People who took Amlodine were not cured</p>,null,html-keyboard-response,111,266531,0.0-2.0-1.18,C-,null,FALSE,null,People who took Amlodine were not cured,null,How well does Amlodine work?,null,null,null,14,1,3,2,4,NA,NA
data_2019-09-03-13-16-47_zo6z1ejiuj,3867,<p>How well does Amlodine work?</p>,NA,html-slider-response,112,270400,0.0-2.0-2.18,C-,null,FALSE,null,People who took Amlodine were not cured,null,How well does Amlodine work?,null,null,null,14,1,3,2,4,-69,q1
data_2019-09-03-13-16-47_zo6z1ejiuj,null,<p>null</p>,NA,html-slider-response,113,270404,0.0-2.0-3.18,C-,null,FALSE,null,People who took Amlodine were not cured,null,How well does Amlodine work?,null,null,null,14,1,3,2,4,null,q2
data_2019-09-03-13-16-47_zo6z1ejiuj,null,<p>null</p>,NA,html-slider-response,114,270407,0.0-2.0-4.18,C-,null,FALSE,null,People who took Amlodine were not cured,null,How well does Amlodine work?,null,null,null,14,1,3,2,4,null,q3
data_2019-09-03-13-16-47_zo6z1ejiuj,null,<p>null</p>,NA,html-slider-response,115,270428,0.0-2.0-5.18,C-,null,FALSE,null,People who took Amlodine were not cured,null,How well does Amlodine work?,null,null,null,14,1,3,2,4,null,q4
data_2019-09-03-13-16-47_zo6z1ejiuj,null,+,null,html-keyboard-response,116,270929,0.0-2.0-0.19,NA,NA,NA,NA,NA,NA,NA,NA,NA,NA,NA,NA,NA,NA,NA,NA,NA
data_2019-09-03-13-16-47_zo6z1ejiuj,null,<p>People who took Losatrin and Atorvacillin were cured</p>,null,html-keyboard-response,117,275931,0.0-2.0-1.19,AB+,null,TRUE,null,People who took Losatrin and Atorvacillin were cured,null,How well does the combination of Losatrin and Atorvacillin work?,How well does Atorvacillin work?,How well does Losatrin work?,null,11,3,2,1,4,NA,NA
data_2019-09-03-13-16-47_zo6z1ejiuj,2890,<p>How well does the combination of Losatrin and Atorvacillin work?</p>,NA,html-slider-response,118,278823,0.0-2.0-2.19,AB+,null,TRUE,null,People who took Losatrin and Atorvacillin were cured,null,How well does the combination of Losatrin and Atorvacillin work?,How well does Atorvacillin work?,How well does Losatrin work?,null,11,3,2,1,4,97,q1
data_2019-09-03-13-16-47_zo6z1ejiuj,4049,<p>How well does Atorvacillin work?</p>,NA,html-slider-response,119,282872,0.0-2.0-3.19,AB+,null,TRUE,null,People who took Losatrin and Atorvacillin were cured,null,How well does the combination of Losatrin and Atorvacillin work?,How well does Atorvacillin work?,How well does Losatrin work?,null,11,3,2,1,4,43,q2
data_2019-09-03-13-16-47_zo6z1ejiuj,2065,<p>How well does Losatrin work?</p>,NA,html-slider-response,120,284938,0.0-2.0-4.19,AB+,null,TRUE,null,People who took Losatrin and Atorvacillin were cured,null,How well does the combination of Losatrin and Atorvacillin work?,How well does Atorvacillin work?,How well does Losatrin work?,null,11,3,2,1,4,42,q3
data_2019-09-03-13-16-47_zo6z1ejiuj,null,<p>null</p>,NA,html-slider-response,121,284941,0.0-2.0-5.19,AB+,null,TRUE,null,People who took Losatrin and Atorvacillin were cured,null,How well does the combination of Losatrin and Atorvacillin work?,How well does Atorvacillin work?,How well does Losatrin work?,null,11,3,2,1,4,null,q4
data_2019-09-03-13-16-47_zo6z1ejiuj,null,+,null,html-keyboard-response,122,285442,0.0-2.0-0.20,NA,NA,NA,NA,NA,NA,NA,NA,NA,NA,NA,NA,NA,NA,NA,NA,NA
data_2019-09-03-13-16-47_zo6z1ejiuj,null,<p>People who took Viacillin were cured</p><p>People who took Metfodipine and Citaloprazole were cured</p>,null,html-keyboard-response,123,290443,0.0-2.0-1.20,C+,AB+,TRUE,TRUE,People who took Viacillin were cured,People who took Metfodipine and Citaloprazole were cured,How well does Citaloprazole work?,How well does the combination of Metfodipine and Citaloprazole work?,How well does Metfodipine work?,How well does Viacillin work?,15,3,4,2,1,NA,NA
data_2019-09-03-13-16-47_zo6z1ejiuj,6314,<p>How well does Citaloprazole work?</p>,NA,html-slider-response,124,296758,0.0-2.0-2.20,C+,AB+,TRUE,TRUE,People who took Viacillin were cured,People who took Metfodipine and Citaloprazole were cured,How well does Citaloprazole work?,How well does the combination of Metfodipine and Citaloprazole work?,How well does Metfodipine work?,How well does Viacillin work?,15,3,4,2,1,-50,q1
data_2019-09-03-13-16-47_zo6z1ejiuj,2542,<p>How well does the combination of Metfodipine and Citaloprazole work?</p>,NA,html-slider-response,125,299301,0.0-2.0-3.20,C+,AB+,TRUE,TRUE,People who took Viacillin were cured,People who took Metfodipine and Citaloprazole were cured,How well does Citaloprazole work?,How well does the combination of Metfodipine and Citaloprazole work?,How well does Metfodipine work?,How well does Viacillin work?,15,3,4,2,1,61,q2
data_2019-09-03-13-16-47_zo6z1ejiuj,1742,<p>How well does Metfodipine work?</p>,NA,html-slider-response,126,301044,0.0-2.0-4.20,C+,AB+,TRUE,TRUE,People who took Viacillin were cured,People who took Metfodipine and Citaloprazole were cured,How well does Citaloprazole work?,How well does the combination of Metfodipine and Citaloprazole work?,How well does Metfodipine work?,How well does Viacillin work?,15,3,4,2,1,0,q3
data_2019-09-03-13-16-47_zo6z1ejiuj,529,<p>How well does Viacillin work?</p>,NA,html-slider-response,127,301574,0.0-2.0-5.20,C+,AB+,TRUE,TRUE,People who took Viacillin were cured,People who took Metfodipine and Citaloprazole were cured,How well does Citaloprazole work?,How well does the combination of Metfodipine and Citaloprazole work?,How well does Metfodipine work?,How well does Viacillin work?,15,3,4,2,1,0,q4
data_2019-09-03-13-16-47_zo6z1ejiuj,null,+,null,html-keyboard-response,128,302076,0.0-2.0-0.21,NA,NA,NA,NA,NA,NA,NA,NA,NA,NA,NA,NA,NA,NA,NA,NA,NA
data_2019-09-03-13-16-47_zo6z1ejiuj,null,<p>People who took Oxypram were cured</p><p>People who took Oxypram and Lorazepro were cured</p>,null,html-keyboard-response,129,307078,0.0-2.0-1.21,A+,AB+,TRUE,TRUE,People who took Oxypram were cured,People who took Oxypram and Lorazepro were cured,How well does Oxypram work?,null,How well does Lorazepro work?,How well does the combination of Oxypram and Lorazepro work?,1,1,4,2,3,NA,NA
data_2019-09-03-13-16-47_zo6z1ejiuj,null,<p>How well does Oxypram work?</p>,NA,html-slider-response,130,317080,0.0-2.0-2.21,A+,AB+,TRUE,TRUE,People who took Oxypram were cured,People who took Oxypram and Lorazepro were cured,How well does Oxypram work?,null,How well does Lorazepro work?,How well does the combination of Oxypram and Lorazepro work?,1,1,4,2,3,null,q1
data_2019-09-03-13-16-47_zo6z1ejiuj,null,<p>null</p>,NA,html-slider-response,131,317085,0.0-2.0-3.21,A+,AB+,TRUE,TRUE,People who took Oxypram were cured,People who took Oxypram and Lorazepro were cured,How well does Oxypram work?,null,How well does Lorazepro work?,How well does the combination of Oxypram and Lorazepro work?,1,1,4,2,3,null,q2
data_2019-09-03-13-16-47_zo6z1ejiuj,2646,<p>How well does Lorazepro work?</p>,NA,html-slider-response,132,319731,0.0-2.0-4.21,A+,AB+,TRUE,TRUE,People who took Oxypram were cured,People who took Oxypram and Lorazepro were cured,How well does Oxypram work?,null,How well does Lorazepro work?,How well does the combination of Oxypram and Lorazepro work?,1,1,4,2,3,0,q3
data_2019-09-03-13-16-47_zo6z1ejiuj,882,<p>How well does the combination of Oxypram and Lorazepro work?</p>,NA,html-slider-response,133,320614,0.0-2.0-5.21,A+,AB+,TRUE,TRUE,People who took Oxypram were cured,People who took Oxypram and Lorazepro were cured,How well does Oxypram work?,null,How well does Lorazepro work?,How well does the combination of Oxypram and Lorazepro work?,1,1,4,2,3,0,q4
