file_id,rt,stimulus,key_press,trial_type,trial_index,time_elapsed,internal_node_id,premise_one,premise_two,question_type,overall_premise,p1_outcome,p2_outcome,p1_sentence,p2_sentence,q1,q2,q3,q4,trial_number,q1_type,q2_type,q3_type,q4_type,response,question_order
data_2019-09-03-14-15-06_lcptud45sh,1118,Welcome to the experiment. Press any key to begin.,32,html-keyboard-response,0,1122,0.0-0.0,NA,NA,NA,NA,NA,NA,NA,NA,NA,NA,NA,NA,NA,NA,NA,NA,NA,NA,NA
data_2019-09-03-14-15-06_lcptud45sh,497.0000000000002,"<p>In this task, you will read the outcomes of drug trials and then judge drug efficacies</p><p>Press any key to begin.</p>",32,html-keyboard-response,1,1620,0.0-1.0,NA,NA,NA,NA,NA,NA,NA,NA,NA,NA,NA,NA,NA,NA,NA,NA,NA,NA,NA
data_2019-09-03-14-15-06_lcptud45sh,null,+,null,html-keyboard-response,2,3122,0.0-2.0-0.0,NA,NA,NA,NA,NA,NA,NA,NA,NA,NA,NA,NA,NA,NA,NA,NA,NA,NA,NA
data_2019-09-03-14-15-06_lcptud45sh,null,<p>People who took Omebenzaprine were cured</p>,null,html-keyboard-response,3,3624,0.0-2.0-1.0,C+,null,control,C+,TRUE,null,People who took Omebenzaprine were cured,null,How well does Omebenzaprine work?,null,null,null,13,1,3,4,2,NA,NA
data_2019-09-03-14-15-06_lcptud45sh,2014,<p>How well does Omebenzaprine work?</p>,NA,html-slider-response,4,5640,0.0-2.0-2.0,C+,null,control,C+,TRUE,null,People who took Omebenzaprine were cured,null,How well does Omebenzaprine work?,null,null,null,13,1,3,4,2,72,q1
data_2019-09-03-14-15-06_lcptud45sh,null,<p>null</p>,NA,html-slider-response,5,5643,0.0-2.0-3.0,C+,null,control,C+,TRUE,null,People who took Omebenzaprine were cured,null,How well does Omebenzaprine work?,null,null,null,13,1,3,4,2,null,q2
data_2019-09-03-14-15-06_lcptud45sh,null,<p>null</p>,NA,html-slider-response,6,5654,0.0-2.0-4.0,C+,null,control,C+,TRUE,null,People who took Omebenzaprine were cured,null,How well does Omebenzaprine work?,null,null,null,13,1,3,4,2,null,q3
data_2019-09-03-14-15-06_lcptud45sh,null,<p>null</p>,NA,html-slider-response,7,5659,0.0-2.0-5.0,C+,null,control,C+,TRUE,null,People who took Omebenzaprine were cured,null,How well does Omebenzaprine work?,null,null,null,13,1,3,4,2,null,q4
data_2019-09-03-14-15-06_lcptud45sh,null,+,null,html-keyboard-response,8,6159,0.0-2.0-0.1,NA,NA,NA,NA,NA,NA,NA,NA,NA,NA,NA,NA,NA,NA,NA,NA,NA,NA,NA
data_2019-09-03-14-15-06_lcptud45sh,null,<p>People who took Ciprogra and Alpraprolol were cured</p>,null,html-keyboard-response,9,6661,0.0-2.0-1.1,AB+,null,control,AB+,TRUE,null,People who took Ciprogra and Alpraprolol were cured,null,How well does the combination of Ciprogra and Alpraprolol work?,How well does Ciprogra work?,null,How well does Alpraprolol work?,11,3,1,4,2,NA,NA
data_2019-09-03-14-15-06_lcptud45sh,2017.999999999999,<p>How well does the combination of Ciprogra and Alpraprolol work?</p>,NA,html-slider-response,10,8681,0.0-2.0-2.1,AB+,null,control,AB+,TRUE,null,People who took Ciprogra and Alpraprolol were cured,null,How well does the combination of Ciprogra and Alpraprolol work?,How well does Ciprogra work?,null,How well does Alpraprolol work?,11,3,1,4,2,49,q1
data_2019-09-03-14-15-06_lcptud45sh,1193,<p>How well does Ciprogra work?</p>,NA,html-slider-response,11,9875,0.0-2.0-3.1,AB+,null,control,AB+,TRUE,null,People who took Ciprogra and Alpraprolol were cured,null,How well does the combination of Ciprogra and Alpraprolol work?,How well does Ciprogra work?,null,How well does Alpraprolol work?,11,3,1,4,2,0,q2
data_2019-09-03-14-15-06_lcptud45sh,null,<p>null</p>,NA,html-slider-response,12,9878,0.0-2.0-4.1,AB+,null,control,AB+,TRUE,null,People who took Ciprogra and Alpraprolol were cured,null,How well does the combination of Ciprogra and Alpraprolol work?,How well does Ciprogra work?,null,How well does Alpraprolol work?,11,3,1,4,2,null,q3
data_2019-09-03-14-15-06_lcptud45sh,434,<p>How well does Alpraprolol work?</p>,NA,html-slider-response,13,10313,0.0-2.0-5.1,AB+,null,control,AB+,TRUE,null,People who took Ciprogra and Alpraprolol were cured,null,How well does the combination of Ciprogra and Alpraprolol work?,How well does Ciprogra work?,null,How well does Alpraprolol work?,11,3,1,4,2,0,q4
data_2019-09-03-14-15-06_lcptud45sh,null,+,null,html-keyboard-response,14,10814,0.0-2.0-0.2,NA,NA,NA,NA,NA,NA,NA,NA,NA,NA,NA,NA,NA,NA,NA,NA,NA,NA,NA
data_2019-09-03-14-15-06_lcptud45sh,null,<p>People who took Clonacycline were cured</p>,null,html-keyboard-response,15,11316,0.0-2.0-1.2,A+,null,control,A+,TRUE,null,People who took Clonacycline were cured,null,null,null,null,How well does Clonacycline work?,9,2,3,4,1,NA,NA
data_2019-09-03-14-15-06_lcptud45sh,null,<p>null</p>,NA,html-slider-response,16,11319,0.0-2.0-2.2,A+,null,control,A+,TRUE,null,People who took Clonacycline were cured,null,null,null,null,How well does Clonacycline work?,9,2,3,4,1,null,q1
data_2019-09-03-14-15-06_lcptud45sh,null,<p>null</p>,NA,html-slider-response,17,11323,0.0-2.0-3.2,A+,null,control,A+,TRUE,null,People who took Clonacycline were cured,null,null,null,null,How well does Clonacycline work?,9,2,3,4,1,null,q2
data_2019-09-03-14-15-06_lcptud45sh,null,<p>null</p>,NA,html-slider-response,18,11338,0.0-2.0-4.2,A+,null,control,A+,TRUE,null,People who took Clonacycline were cured,null,null,null,null,How well does Clonacycline work?,9,2,3,4,1,null,q3
data_2019-09-03-14-15-06_lcptud45sh,2256,<p>How well does Clonacycline work?</p>,NA,html-slider-response,19,13595,0.0-2.0-5.2,A+,null,control,A+,TRUE,null,People who took Clonacycline were cured,null,null,null,null,How well does Clonacycline work?,9,2,3,4,1,57,q4
data_2019-09-03-14-15-06_lcptud45sh,null,+,null,html-keyboard-response,20,14096,0.0-2.0-0.3,NA,NA,NA,NA,NA,NA,NA,NA,NA,NA,NA,NA,NA,NA,NA,NA,NA,NA,NA
data_2019-09-03-14-15-06_lcptud45sh,null,<p>People who took Amitrinax were not cured</p><p>People who took Addefloxacin and Lorazeprofen were cured</p>,null,html-keyboard-response,21,14598,0.0-2.0-1.3,C-,AB+,control,C-AB+,FALSE,TRUE,People who took Amitrinax were not cured,People who took Addefloxacin and Lorazeprofen were cured,How well does the combination of Addefloxacin and Lorazeprofen work?,How well does Lorazeprofen work?,How well does Addefloxacin work?,How well does Amitrinax work?,17,4,3,2,1,NA,NA
data_2019-09-03-14-15-06_lcptud45sh,2976,<p>How well does the combination of Addefloxacin and Lorazeprofen work?</p>,NA,html-slider-response,22,17576,0.0-2.0-2.3,C-,AB+,control,C-AB+,FALSE,TRUE,People who took Amitrinax were not cured,People who took Addefloxacin and Lorazeprofen were cured,How well does the combination of Addefloxacin and Lorazeprofen work?,How well does Lorazeprofen work?,How well does Addefloxacin work?,How well does Amitrinax work?,17,4,3,2,1,-57,q1
data_2019-09-03-14-15-06_lcptud45sh,2654,<p>How well does Lorazeprofen work?</p>,NA,html-slider-response,23,20231,0.0-2.0-3.3,C-,AB+,control,C-AB+,FALSE,TRUE,People who took Amitrinax were not cured,People who took Addefloxacin and Lorazeprofen were cured,How well does the combination of Addefloxacin and Lorazeprofen work?,How well does Lorazeprofen work?,How well does Addefloxacin work?,How well does Amitrinax work?,17,4,3,2,1,54,q2
data_2019-09-03-14-15-06_lcptud45sh,584.9999999999964,<p>How well does Addefloxacin work?</p>,NA,html-slider-response,24,20819,0.0-2.0-4.3,C-,AB+,control,C-AB+,FALSE,TRUE,People who took Amitrinax were not cured,People who took Addefloxacin and Lorazeprofen were cured,How well does the combination of Addefloxacin and Lorazeprofen work?,How well does Lorazeprofen work?,How well does Addefloxacin work?,How well does Amitrinax work?,17,4,3,2,1,0,q3
data_2019-09-03-14-15-06_lcptud45sh,667,<p>How well does Amitrinax work?</p>,NA,html-slider-response,25,21486,0.0-2.0-5.3,C-,AB+,control,C-AB+,FALSE,TRUE,People who took Amitrinax were not cured,People who took Addefloxacin and Lorazeprofen were cured,How well does the combination of Addefloxacin and Lorazeprofen work?,How well does Lorazeprofen work?,How well does Addefloxacin work?,How well does Amitrinax work?,17,4,3,2,1,0,q4
data_2019-09-03-14-15-06_lcptud45sh,null,+,null,html-keyboard-response,26,21987,0.0-2.0-0.4,NA,NA,NA,NA,NA,NA,NA,NA,NA,NA,NA,NA,NA,NA,NA,NA,NA,NA,NA
data_2019-09-03-14-15-06_lcptud45sh,null,<p>People who took Alpravan were not cured</p>,null,html-keyboard-response,27,22489,0.0-2.0-1.4,C-,null,control,C-,FALSE,null,People who took Alpravan were not cured,null,null,null,null,How well does Alpravan work?,14,4,3,2,1,NA,NA
data_2019-09-03-14-15-06_lcptud45sh,null,<p>null</p>,NA,html-slider-response,28,22494,0.0-2.0-2.4,C-,null,control,C-,FALSE,null,People who took Alpravan were not cured,null,null,null,null,How well does Alpravan work?,14,4,3,2,1,null,q1
data_2019-09-03-14-15-06_lcptud45sh,null,<p>null</p>,NA,html-slider-response,29,22497,0.0-2.0-3.4,C-,null,control,C-,FALSE,null,People who took Alpravan were not cured,null,null,null,null,How well does Alpravan work?,14,4,3,2,1,null,q2
data_2019-09-03-14-15-06_lcptud45sh,null,<p>null</p>,NA,html-slider-response,30,22508,0.0-2.0-4.4,C-,null,control,C-,FALSE,null,People who took Alpravan were not cured,null,null,null,null,How well does Alpravan work?,14,4,3,2,1,null,q3
data_2019-09-03-14-15-06_lcptud45sh,2455,<p>How well does Alpravan work?</p>,NA,html-slider-response,31,24964,0.0-2.0-5.4,C-,null,control,C-,FALSE,null,People who took Alpravan were not cured,null,null,null,null,How well does Alpravan work?,14,4,3,2,1,-54,q4
data_2019-09-03-14-15-06_lcptud45sh,null,+,null,html-keyboard-response,32,25466,0.0-2.0-0.5,NA,NA,NA,NA,NA,NA,NA,NA,NA,NA,NA,NA,NA,NA,NA,NA,NA,NA,NA
data_2019-09-03-14-15-06_lcptud45sh,null,<p>People who took Pantocodone and Lisinoloft were not cured</p>,null,html-keyboard-response,33,25968,0.0-2.0-1.5,AB-,null,control,AB-,FALSE,null,People who took Pantocodone and Lisinoloft were not cured,null,How well does the combination of Pantocodone and Lisinoloft work?,How well does Pantocodone work?,How well does Lisinoloft work?,null,12,3,1,2,4,NA,NA
data_2019-09-03-14-15-06_lcptud45sh,1883,<p>How well does the combination of Pantocodone and Lisinoloft work?</p>,NA,html-slider-response,34,27852,0.0-2.0-2.5,AB-,null,control,AB-,FALSE,null,People who took Pantocodone and Lisinoloft were not cured,null,How well does the combination of Pantocodone and Lisinoloft work?,How well does Pantocodone work?,How well does Lisinoloft work?,null,12,3,1,2,4,-57,q1
data_2019-09-03-14-15-06_lcptud45sh,1974,<p>How well does Pantocodone work?</p>,NA,html-slider-response,35,29826,0.0-2.0-3.5,AB-,null,control,AB-,FALSE,null,People who took Pantocodone and Lisinoloft were not cured,null,How well does the combination of Pantocodone and Lisinoloft work?,How well does Pantocodone work?,How well does Lisinoloft work?,null,12,3,1,2,4,-37,q2
data_2019-09-03-14-15-06_lcptud45sh,1772.9999999999964,<p>How well does Lisinoloft work?</p>,NA,html-slider-response,36,31601,0.0-2.0-4.5,AB-,null,control,AB-,FALSE,null,People who took Pantocodone and Lisinoloft were not cured,null,How well does the combination of Pantocodone and Lisinoloft work?,How well does Pantocodone work?,How well does Lisinoloft work?,null,12,3,1,2,4,-31,q3
data_2019-09-03-14-15-06_lcptud45sh,null,<p>null</p>,NA,html-slider-response,37,31603,0.0-2.0-5.5,AB-,null,control,AB-,FALSE,null,People who took Pantocodone and Lisinoloft were not cured,null,How well does the combination of Pantocodone and Lisinoloft work?,How well does Pantocodone work?,How well does Lisinoloft work?,null,12,3,1,2,4,null,q4
data_2019-09-03-14-15-06_lcptud45sh,null,+,null,html-keyboard-response,38,32105,0.0-2.0-0.6,NA,NA,NA,NA,NA,NA,NA,NA,NA,NA,NA,NA,NA,NA,NA,NA,NA,NA,NA
data_2019-09-03-14-15-06_lcptud45sh,null,<p>People who took Xaprazole were cured</p><p>People who took Lorazedone and Ibuptyline were not cured</p>,null,html-keyboard-response,39,32607,0.0-2.0-1.6,C+,AB-,control,C+AB-,TRUE,FALSE,People who took Xaprazole were cured,People who took Lorazedone and Ibuptyline were not cured,How well does Lorazedone work?,How well does Ibuptyline work?,How well does the combination of Lorazedone and Ibuptyline work?,How well does Xaprazole work?,16,2,3,4,1,NA,NA
data_2019-09-03-14-15-06_lcptud45sh,2156,<p>How well does Lorazedone work?</p>,NA,html-slider-response,40,34764,0.0-2.0-2.6,C+,AB-,control,C+AB-,TRUE,FALSE,People who took Xaprazole were cured,People who took Lorazedone and Ibuptyline were not cured,How well does Lorazedone work?,How well does Ibuptyline work?,How well does the combination of Lorazedone and Ibuptyline work?,How well does Xaprazole work?,16,2,3,4,1,-83,q1
data_2019-09-03-14-15-06_lcptud45sh,1659,<p>How well does Ibuptyline work?</p>,NA,html-slider-response,41,36423,0.0-2.0-3.6,C+,AB-,control,C+AB-,TRUE,FALSE,People who took Xaprazole were cured,People who took Lorazedone and Ibuptyline were not cured,How well does Lorazedone work?,How well does Ibuptyline work?,How well does the combination of Lorazedone and Ibuptyline work?,How well does Xaprazole work?,16,2,3,4,1,50,q2
data_2019-09-03-14-15-06_lcptud45sh,1101,<p>How well does the combination of Lorazedone and Ibuptyline work?</p>,NA,html-slider-response,42,37525,0.0-2.0-4.6,C+,AB-,control,C+AB-,TRUE,FALSE,People who took Xaprazole were cured,People who took Lorazedone and Ibuptyline were not cured,How well does Lorazedone work?,How well does Ibuptyline work?,How well does the combination of Lorazedone and Ibuptyline work?,How well does Xaprazole work?,16,2,3,4,1,0,q3
data_2019-09-03-14-15-06_lcptud45sh,577,<p>How well does Xaprazole work?</p>,NA,html-slider-response,43,38102,0.0-2.0-5.6,C+,AB-,control,C+AB-,TRUE,FALSE,People who took Xaprazole were cured,People who took Lorazedone and Ibuptyline were not cured,How well does Lorazedone work?,How well does Ibuptyline work?,How well does the combination of Lorazedone and Ibuptyline work?,How well does Xaprazole work?,16,2,3,4,1,0,q4
data_2019-09-03-14-15-06_lcptud45sh,null,+,null,html-keyboard-response,44,38604,0.0-2.0-0.7,NA,NA,NA,NA,NA,NA,NA,NA,NA,NA,NA,NA,NA,NA,NA,NA,NA,NA,NA
data_2019-09-03-14-15-06_lcptud45sh,null,<p>People who took Clindacillin and Viastatin were not cured</p><p>People who took Cymcycline were not cured</p>,null,html-keyboard-response,45,39106,0.0-2.0-1.7,AB-,C-,control,C-AB-,FALSE,FALSE,People who took Clindacillin and Viastatin were not cured,People who took Cymcycline were not cured,How well does the combination of Clindacillin and Viastatin work?,How well does Viastatin work?,null,How well does Clindacillin work?,22,3,2,4,1,NA,NA
data_2019-09-03-14-15-06_lcptud45sh,3136,<p>How well does the combination of Clindacillin and Viastatin work?</p>,NA,html-slider-response,46,42244,0.0-2.0-2.7,AB-,C-,control,C-AB-,FALSE,FALSE,People who took Clindacillin and Viastatin were not cured,People who took Cymcycline were not cured,How well does the combination of Clindacillin and Viastatin work?,How well does Viastatin work?,null,How well does Clindacillin work?,22,3,2,4,1,57,q1
data_2019-09-03-14-15-06_lcptud45sh,1823.0000000000073,<p>How well does Viastatin work?</p>,NA,html-slider-response,47,44068,0.0-2.0-3.7,AB-,C-,control,C-AB-,FALSE,FALSE,People who took Clindacillin and Viastatin were not cured,People who took Cymcycline were not cured,How well does the combination of Clindacillin and Viastatin work?,How well does Viastatin work?,null,How well does Clindacillin work?,22,3,2,4,1,-50,q2
data_2019-09-03-14-15-06_lcptud45sh,null,<p>null</p>,NA,html-slider-response,48,44071,0.0-2.0-4.7,AB-,C-,control,C-AB-,FALSE,FALSE,People who took Clindacillin and Viastatin were not cured,People who took Cymcycline were not cured,How well does the combination of Clindacillin and Viastatin work?,How well does Viastatin work?,null,How well does Clindacillin work?,22,3,2,4,1,null,q3
data_2019-09-03-14-15-06_lcptud45sh,2081,<p>How well does Clindacillin work?</p>,NA,html-slider-response,49,46152,0.0-2.0-5.7,AB-,C-,control,C-AB-,FALSE,FALSE,People who took Clindacillin and Viastatin were not cured,People who took Cymcycline were not cured,How well does the combination of Clindacillin and Viastatin work?,How well does Viastatin work?,null,How well does Clindacillin work?,22,3,2,4,1,22,q4
data_2019-09-03-14-15-06_lcptud45sh,null,+,null,html-keyboard-response,50,46654,0.0-2.0-0.8,NA,NA,NA,NA,NA,NA,NA,NA,NA,NA,NA,NA,NA,NA,NA,NA,NA,NA,NA
data_2019-09-03-14-15-06_lcptud45sh,null,<p>People who took Pantocillin were not cured</p><p>People who took Pantocillin and Lyrisone were cured</p>,null,html-keyboard-response,51,47155,0.0-2.0-1.8,A-,AB+,experimental,A-AB+,FALSE,TRUE,People who took Pantocillin were not cured,People who took Pantocillin and Lyrisone were cured,How well does Pantocillin work?,null,How well does the combination of Pantocillin and Lyrisone work?,How well does Lyrisone work?,3,1,4,3,2,NA,NA
data_2019-09-03-14-15-06_lcptud45sh,1995,<p>How well does Pantocillin work?</p>,NA,html-slider-response,52,49151,0.0-2.0-2.8,A-,AB+,experimental,A-AB+,FALSE,TRUE,People who took Pantocillin were not cured,People who took Pantocillin and Lyrisone were cured,How well does Pantocillin work?,null,How well does the combination of Pantocillin and Lyrisone work?,How well does Lyrisone work?,3,1,4,3,2,65,q1
data_2019-09-03-14-15-06_lcptud45sh,null,<p>null</p>,NA,html-slider-response,53,49154,0.0-2.0-3.8,A-,AB+,experimental,A-AB+,FALSE,TRUE,People who took Pantocillin were not cured,People who took Pantocillin and Lyrisone were cured,How well does Pantocillin work?,null,How well does the combination of Pantocillin and Lyrisone work?,How well does Lyrisone work?,3,1,4,3,2,null,q2
data_2019-09-03-14-15-06_lcptud45sh,1782.0000000000073,<p>How well does the combination of Pantocillin and Lyrisone work?</p>,NA,html-slider-response,54,50936,0.0-2.0-4.8,A-,AB+,experimental,A-AB+,FALSE,TRUE,People who took Pantocillin were not cured,People who took Pantocillin and Lyrisone were cured,How well does Pantocillin work?,null,How well does the combination of Pantocillin and Lyrisone work?,How well does Lyrisone work?,3,1,4,3,2,32,q3
data_2019-09-03-14-15-06_lcptud45sh,1934.9999999999927,<p>How well does Lyrisone work?</p>,NA,html-slider-response,55,52871,0.0-2.0-5.8,A-,AB+,experimental,A-AB+,FALSE,TRUE,People who took Pantocillin were not cured,People who took Pantocillin and Lyrisone were cured,How well does Pantocillin work?,null,How well does the combination of Pantocillin and Lyrisone work?,How well does Lyrisone work?,3,1,4,3,2,-26,q4
data_2019-09-03-14-15-06_lcptud45sh,null,+,null,html-keyboard-response,56,53373,0.0-2.0-0.9,NA,NA,NA,NA,NA,NA,NA,NA,NA,NA,NA,NA,NA,NA,NA,NA,NA,NA,NA
data_2019-09-03-14-15-06_lcptud45sh,null,<p>People who took Lyrigra were cured</p><p>People who took Lyrigra and Lisinominophen were not cured</p>,null,html-keyboard-response,57,53875,0.0-2.0-1.9,A+,AB-,experimental,A+AB-,TRUE,FALSE,People who took Lyrigra were cured,People who took Lyrigra and Lisinominophen were not cured,How well does Lisinominophen work?,How well does Lyrigra work?,How well does the combination of Lyrigra and Lisinominophen work?,null,2,2,1,3,4,NA,NA
data_2019-09-03-14-15-06_lcptud45sh,2327,<p>How well does Lisinominophen work?</p>,NA,html-slider-response,58,56204,0.0-2.0-2.9,A+,AB-,experimental,A+AB-,TRUE,FALSE,People who took Lyrigra were cured,People who took Lyrigra and Lisinominophen were not cured,How well does Lisinominophen work?,How well does Lyrigra work?,How well does the combination of Lyrigra and Lisinominophen work?,null,2,2,1,3,4,34,q1
data_2019-09-03-14-15-06_lcptud45sh,1927,<p>How well does Lyrigra work?</p>,NA,html-slider-response,59,58132,0.0-2.0-3.9,A+,AB-,experimental,A+AB-,TRUE,FALSE,People who took Lyrigra were cured,People who took Lyrigra and Lisinominophen were not cured,How well does Lisinominophen work?,How well does Lyrigra work?,How well does the combination of Lyrigra and Lisinominophen work?,null,2,2,1,3,4,54,q2
data_2019-09-03-14-15-06_lcptud45sh,1743.0000000000073,<p>How well does the combination of Lyrigra and Lisinominophen work?</p>,NA,html-slider-response,60,59876,0.0-2.0-4.9,A+,AB-,experimental,A+AB-,TRUE,FALSE,People who took Lyrigra were cured,People who took Lyrigra and Lisinominophen were not cured,How well does Lisinominophen work?,How well does Lyrigra work?,How well does the combination of Lyrigra and Lisinominophen work?,null,2,2,1,3,4,23,q3
data_2019-09-03-14-15-06_lcptud45sh,null,<p>null</p>,NA,html-slider-response,61,59880,0.0-2.0-5.9,A+,AB-,experimental,A+AB-,TRUE,FALSE,People who took Lyrigra were cured,People who took Lyrigra and Lisinominophen were not cured,How well does Lisinominophen work?,How well does Lyrigra work?,How well does the combination of Lyrigra and Lisinominophen work?,null,2,2,1,3,4,null,q4
data_2019-09-03-14-15-06_lcptud45sh,null,+,null,html-keyboard-response,62,60381,0.0-2.0-0.10,NA,NA,NA,NA,NA,NA,NA,NA,NA,NA,NA,NA,NA,NA,NA,NA,NA,NA,NA
data_2019-09-03-14-15-06_lcptud45sh,null,<p>People who took Vianax and Clindacycline were cured</p><p>People who took Vianax were cured</p>,null,html-keyboard-response,63,60883,0.0-2.0-1.10,AB+,A+,experimental,A+AB+,TRUE,TRUE,People who took Vianax and Clindacycline were cured,People who took Vianax were cured,How well does Clindacycline work?,How well does the combination of Vianax and Clindacycline work?,null,How well does Vianax work?,5,2,3,4,1,NA,NA
data_2019-09-03-14-15-06_lcptud45sh,775,<p>How well does Clindacycline work?</p>,NA,html-slider-response,64,61658,0.0-2.0-2.10,AB+,A+,experimental,A+AB+,TRUE,TRUE,People who took Vianax and Clindacycline were cured,People who took Vianax were cured,How well does Clindacycline work?,How well does the combination of Vianax and Clindacycline work?,null,How well does Vianax work?,5,2,3,4,1,0,q1
data_2019-09-03-14-15-06_lcptud45sh,454,<p>How well does the combination of Vianax and Clindacycline work?</p>,NA,html-slider-response,65,62113,0.0-2.0-3.10,AB+,A+,experimental,A+AB+,TRUE,TRUE,People who took Vianax and Clindacycline were cured,People who took Vianax were cured,How well does Clindacycline work?,How well does the combination of Vianax and Clindacycline work?,null,How well does Vianax work?,5,2,3,4,1,0,q2
data_2019-09-03-14-15-06_lcptud45sh,null,<p>null</p>,NA,html-slider-response,66,62118,0.0-2.0-4.10,AB+,A+,experimental,A+AB+,TRUE,TRUE,People who took Vianax and Clindacycline were cured,People who took Vianax were cured,How well does Clindacycline work?,How well does the combination of Vianax and Clindacycline work?,null,How well does Vianax work?,5,2,3,4,1,null,q3
data_2019-09-03-14-15-06_lcptud45sh,436,<p>How well does Vianax work?</p>,NA,html-slider-response,67,62555,0.0-2.0-5.10,AB+,A+,experimental,A+AB+,TRUE,TRUE,People who took Vianax and Clindacycline were cured,People who took Vianax were cured,How well does Clindacycline work?,How well does the combination of Vianax and Clindacycline work?,null,How well does Vianax work?,5,2,3,4,1,0,q4
data_2019-09-03-14-15-06_lcptud45sh,null,+,null,html-keyboard-response,68,63057,0.0-2.0-0.11,NA,NA,NA,NA,NA,NA,NA,NA,NA,NA,NA,NA,NA,NA,NA,NA,NA,NA,NA
data_2019-09-03-14-15-06_lcptud45sh,null,<p>People who took Viaprofen and Lisinonax were not cured</p><p>People who took Viaprofen were cured</p>,null,html-keyboard-response,69,63559,0.0-2.0-1.11,AB-,A+,experimental,A+AB-,FALSE,TRUE,People who took Viaprofen and Lisinonax were not cured,People who took Viaprofen were cured,How well does the combination of Viaprofen and Lisinonax work?,How well does Viaprofen work?,How well does Lisinonax work?,null,6,3,1,2,4,NA,NA
data_2019-09-03-14-15-06_lcptud45sh,3128,<p>How well does the combination of Viaprofen and Lisinonax work?</p>,NA,html-slider-response,70,66688,0.0-2.0-2.11,AB-,A+,experimental,A+AB-,FALSE,TRUE,People who took Viaprofen and Lisinonax were not cured,People who took Viaprofen were cured,How well does the combination of Viaprofen and Lisinonax work?,How well does Viaprofen work?,How well does Lisinonax work?,null,6,3,1,2,4,-48,q1
data_2019-09-03-14-15-06_lcptud45sh,2081,<p>How well does Viaprofen work?</p>,NA,html-slider-response,71,68770,0.0-2.0-3.11,AB-,A+,experimental,A+AB-,FALSE,TRUE,People who took Viaprofen and Lisinonax were not cured,People who took Viaprofen were cured,How well does the combination of Viaprofen and Lisinonax work?,How well does Viaprofen work?,How well does Lisinonax work?,null,6,3,1,2,4,29,q2
data_2019-09-03-14-15-06_lcptud45sh,2173,<p>How well does Lisinonax work?</p>,NA,html-slider-response,72,70943,0.0-2.0-4.11,AB-,A+,experimental,A+AB-,FALSE,TRUE,People who took Viaprofen and Lisinonax were not cured,People who took Viaprofen were cured,How well does the combination of Viaprofen and Lisinonax work?,How well does Viaprofen work?,How well does Lisinonax work?,null,6,3,1,2,4,-24,q3
data_2019-09-03-14-15-06_lcptud45sh,null,<p>null</p>,NA,html-slider-response,73,70945,0.0-2.0-5.11,AB-,A+,experimental,A+AB-,FALSE,TRUE,People who took Viaprofen and Lisinonax were not cured,People who took Viaprofen were cured,How well does the combination of Viaprofen and Lisinonax work?,How well does Viaprofen work?,How well does Lisinonax work?,null,6,3,1,2,4,null,q4
data_2019-09-03-14-15-06_lcptud45sh,null,+,null,html-keyboard-response,74,71447,0.0-2.0-0.12,NA,NA,NA,NA,NA,NA,NA,NA,NA,NA,NA,NA,NA,NA,NA,NA,NA,NA,NA
data_2019-09-03-14-15-06_lcptud45sh,null,<p>People who took Addestatin were not cured</p>,null,html-keyboard-response,75,71949,0.0-2.0-1.12,A-,null,control,A-,FALSE,null,People who took Addestatin were not cured,null,How well does Addestatin work?,null,null,null,10,1,2,3,4,NA,NA
data_2019-09-03-14-15-06_lcptud45sh,841,<p>How well does Addestatin work?</p>,NA,html-slider-response,76,72791,0.0-2.0-2.12,A-,null,control,A-,FALSE,null,People who took Addestatin were not cured,null,How well does Addestatin work?,null,null,null,10,1,2,3,4,0,q1
data_2019-09-03-14-15-06_lcptud45sh,null,<p>null</p>,NA,html-slider-response,77,72794,0.0-2.0-3.12,A-,null,control,A-,FALSE,null,People who took Addestatin were not cured,null,How well does Addestatin work?,null,null,null,10,1,2,3,4,null,q2
data_2019-09-03-14-15-06_lcptud45sh,null,<p>null</p>,NA,html-slider-response,78,72804,0.0-2.0-4.12,A-,null,control,A-,FALSE,null,People who took Addestatin were not cured,null,How well does Addestatin work?,null,null,null,10,1,2,3,4,null,q3
data_2019-09-03-14-15-06_lcptud45sh,null,<p>null</p>,NA,html-slider-response,79,72808,0.0-2.0-5.12,A-,null,control,A-,FALSE,null,People who took Addestatin were not cured,null,How well does Addestatin work?,null,null,null,10,1,2,3,4,null,q4
data_2019-09-03-14-15-06_lcptud45sh,null,+,null,html-keyboard-response,80,73309,0.0-2.0-0.13,NA,NA,NA,NA,NA,NA,NA,NA,NA,NA,NA,NA,NA,NA,NA,NA,NA,NA,NA
data_2019-09-03-14-15-06_lcptud45sh,null,<p>People who took Naproprazole and Doxygra were not cured</p><p>People who took Naproprazole were not cured</p>,null,html-keyboard-response,81,73811,0.0-2.0-1.13,AB-,A-,experimental,A-AB-,FALSE,FALSE,People who took Naproprazole and Doxygra were not cured,People who took Naproprazole were not cured,How well does Doxygra work?,How well does the combination of Naproprazole and Doxygra work?,null,How well does Naproprazole work?,8,2,3,4,1,NA,NA
data_2019-09-03-14-15-06_lcptud45sh,2164,<p>How well does Doxygra work?</p>,NA,html-slider-response,82,75976,0.0-2.0-2.13,AB-,A-,experimental,A-AB-,FALSE,FALSE,People who took Naproprazole and Doxygra were not cured,People who took Naproprazole were not cured,How well does Doxygra work?,How well does the combination of Naproprazole and Doxygra work?,null,How well does Naproprazole work?,8,2,3,4,1,53,q1
data_2019-09-03-14-15-06_lcptud45sh,977,<p>How well does the combination of Naproprazole and Doxygra work?</p>,NA,html-slider-response,83,76955,0.0-2.0-3.13,AB-,A-,experimental,A-AB-,FALSE,FALSE,People who took Naproprazole and Doxygra were not cured,People who took Naproprazole were not cured,How well does Doxygra work?,How well does the combination of Naproprazole and Doxygra work?,null,How well does Naproprazole work?,8,2,3,4,1,0,q2
data_2019-09-03-14-15-06_lcptud45sh,null,<p>null</p>,NA,html-slider-response,84,76959,0.0-2.0-4.13,AB-,A-,experimental,A-AB-,FALSE,FALSE,People who took Naproprazole and Doxygra were not cured,People who took Naproprazole were not cured,How well does Doxygra work?,How well does the combination of Naproprazole and Doxygra work?,null,How well does Naproprazole work?,8,2,3,4,1,null,q3
data_2019-09-03-14-15-06_lcptud45sh,769,<p>How well does Naproprazole work?</p>,NA,html-slider-response,85,77728,0.0-2.0-5.13,AB-,A-,experimental,A-AB-,FALSE,FALSE,People who took Naproprazole and Doxygra were not cured,People who took Naproprazole were not cured,How well does Doxygra work?,How well does the combination of Naproprazole and Doxygra work?,null,How well does Naproprazole work?,8,2,3,4,1,0,q4
data_2019-09-03-14-15-06_lcptud45sh,null,+,null,html-keyboard-response,86,78229,0.0-2.0-0.14,NA,NA,NA,NA,NA,NA,NA,NA,NA,NA,NA,NA,NA,NA,NA,NA,NA,NA,NA
data_2019-09-03-14-15-06_lcptud45sh,null,<p>People who took Melobalta were cured</p><p>People who took Melobalta and Acetanax were cured</p>,null,html-keyboard-response,87,78730,0.0-2.0-1.14,A+,AB+,experimental,A+AB+,TRUE,TRUE,People who took Melobalta were cured,People who took Melobalta and Acetanax were cured,null,How well does the combination of Melobalta and Acetanax work?,How well does Acetanax work?,How well does Melobalta work?,1,4,3,2,1,NA,NA
data_2019-09-03-14-15-06_lcptud45sh,null,<p>null</p>,NA,html-slider-response,88,78733,0.0-2.0-2.14,A+,AB+,experimental,A+AB+,TRUE,TRUE,People who took Melobalta were cured,People who took Melobalta and Acetanax were cured,null,How well does the combination of Melobalta and Acetanax work?,How well does Acetanax work?,How well does Melobalta work?,1,4,3,2,1,null,q1
data_2019-09-03-14-15-06_lcptud45sh,652,<p>How well does the combination of Melobalta and Acetanax work?</p>,NA,html-slider-response,89,79386,0.0-2.0-3.14,A+,AB+,experimental,A+AB+,TRUE,TRUE,People who took Melobalta were cured,People who took Melobalta and Acetanax were cured,null,How well does the combination of Melobalta and Acetanax work?,How well does Acetanax work?,How well does Melobalta work?,1,4,3,2,1,0,q2
data_2019-09-03-14-15-06_lcptud45sh,479,<p>How well does Acetanax work?</p>,NA,html-slider-response,90,79866,0.0-2.0-4.14,A+,AB+,experimental,A+AB+,TRUE,TRUE,People who took Melobalta were cured,People who took Melobalta and Acetanax were cured,null,How well does the combination of Melobalta and Acetanax work?,How well does Acetanax work?,How well does Melobalta work?,1,4,3,2,1,0,q3
data_2019-09-03-14-15-06_lcptud45sh,464,<p>How well does Melobalta work?</p>,NA,html-slider-response,91,80331,0.0-2.0-5.14,A+,AB+,experimental,A+AB+,TRUE,TRUE,People who took Melobalta were cured,People who took Melobalta and Acetanax were cured,null,How well does the combination of Melobalta and Acetanax work?,How well does Acetanax work?,How well does Melobalta work?,1,4,3,2,1,0,q4
data_2019-09-03-14-15-06_lcptud45sh,null,+,null,html-keyboard-response,92,80832,0.0-2.0-0.15,NA,NA,NA,NA,NA,NA,NA,NA,NA,NA,NA,NA,NA,NA,NA,NA,NA,NA,NA
data_2019-09-03-14-15-06_lcptud45sh,null,<p>People who took Lorazegra and Citalovan were cured</p><p>People who took Alpraxicam were not cured</p>,null,html-keyboard-response,93,81334,0.0-2.0-1.15,AB+,C-,control,C-AB+,TRUE,FALSE,People who took Lorazegra and Citalovan were cured,People who took Alpraxicam were not cured,How well does the combination of Lorazegra and Citalovan work?,How well does Citalovan work?,How well does Lorazegra work?,null,21,3,2,1,4,NA,NA
data_2019-09-03-14-15-06_lcptud45sh,601,<p>How well does the combination of Lorazegra and Citalovan work?</p>,NA,html-slider-response,94,81936,0.0-2.0-2.15,AB+,C-,control,C-AB+,TRUE,FALSE,People who took Lorazegra and Citalovan were cured,People who took Alpraxicam were not cured,How well does the combination of Lorazegra and Citalovan work?,How well does Citalovan work?,How well does Lorazegra work?,null,21,3,2,1,4,0,q1
data_2019-09-03-14-15-06_lcptud45sh,562,<p>How well does Citalovan work?</p>,NA,html-slider-response,95,82499,0.0-2.0-3.15,AB+,C-,control,C-AB+,TRUE,FALSE,People who took Lorazegra and Citalovan were cured,People who took Alpraxicam were not cured,How well does the combination of Lorazegra and Citalovan work?,How well does Citalovan work?,How well does Lorazegra work?,null,21,3,2,1,4,0,q2
data_2019-09-03-14-15-06_lcptud45sh,538,<p>How well does Lorazegra work?</p>,NA,html-slider-response,96,83037,0.0-2.0-4.15,AB+,C-,control,C-AB+,TRUE,FALSE,People who took Lorazegra and Citalovan were cured,People who took Alpraxicam were not cured,How well does the combination of Lorazegra and Citalovan work?,How well does Citalovan work?,How well does Lorazegra work?,null,21,3,2,1,4,0,q3
data_2019-09-03-14-15-06_lcptud45sh,null,<p>null</p>,NA,html-slider-response,97,83040,0.0-2.0-5.15,AB+,C-,control,C-AB+,TRUE,FALSE,People who took Lorazegra and Citalovan were cured,People who took Alpraxicam were not cured,How well does the combination of Lorazegra and Citalovan work?,How well does Citalovan work?,How well does Lorazegra work?,null,21,3,2,1,4,null,q4
data_2019-09-03-14-15-06_lcptud45sh,null,+,null,html-keyboard-response,98,83541,0.0-2.0-0.16,NA,NA,NA,NA,NA,NA,NA,NA,NA,NA,NA,NA,NA,NA,NA,NA,NA,NA,NA
data_2019-09-03-14-15-06_lcptud45sh,null,<p>People who took Amitrivan and Cyclopril were not cured</p><p>People who took Atistatin were cured</p>,null,html-keyboard-response,99,84043,0.0-2.0-1.16,AB-,C+,control,C+AB-,FALSE,TRUE,People who took Amitrivan and Cyclopril were not cured,People who took Atistatin were cured,null,How well does Amitrivan work?,How well does Cyclopril work?,How well does the combination of Amitrivan and Cyclopril work?,20,4,1,2,3,NA,NA
data_2019-09-03-14-15-06_lcptud45sh,null,<p>null</p>,NA,html-slider-response,100,84047,0.0-2.0-2.16,AB-,C+,control,C+AB-,FALSE,TRUE,People who took Amitrivan and Cyclopril were not cured,People who took Atistatin were cured,null,How well does Amitrivan work?,How well does Cyclopril work?,How well does the combination of Amitrivan and Cyclopril work?,20,4,1,2,3,null,q1
data_2019-09-03-14-15-06_lcptud45sh,1691.9999999999854,<p>How well does Amitrivan work?</p>,NA,html-slider-response,101,85740,0.0-2.0-3.16,AB-,C+,control,C+AB-,FALSE,TRUE,People who took Amitrivan and Cyclopril were not cured,People who took Atistatin were cured,null,How well does Amitrivan work?,How well does Cyclopril work?,How well does the combination of Amitrivan and Cyclopril work?,20,4,1,2,3,29,q2
data_2019-09-03-14-15-06_lcptud45sh,1784,<p>How well does Cyclopril work?</p>,NA,html-slider-response,102,87524,0.0-2.0-4.16,AB-,C+,control,C+AB-,FALSE,TRUE,People who took Amitrivan and Cyclopril were not cured,People who took Atistatin were cured,null,How well does Amitrivan work?,How well does Cyclopril work?,How well does the combination of Amitrivan and Cyclopril work?,20,4,1,2,3,50,q3
data_2019-09-03-14-15-06_lcptud45sh,1791.0000000000146,<p>How well does the combination of Amitrivan and Cyclopril work?</p>,NA,html-slider-response,103,89317,0.0-2.0-5.16,AB-,C+,control,C+AB-,FALSE,TRUE,People who took Amitrivan and Cyclopril were not cured,People who took Atistatin were cured,null,How well does Amitrivan work?,How well does Cyclopril work?,How well does the combination of Amitrivan and Cyclopril work?,20,4,1,2,3,22,q4
data_2019-09-03-14-15-06_lcptud45sh,null,+,null,html-keyboard-response,104,89818,0.0-2.0-0.17,NA,NA,NA,NA,NA,NA,NA,NA,NA,NA,NA,NA,NA,NA,NA,NA,NA,NA,NA
data_2019-09-03-14-15-06_lcptud45sh,null,<p>People who took Wellbupentin were not cured</p><p>People who took Atifloxacin and Atizolam were not cured</p>,null,html-keyboard-response,105,90319,0.0-2.0-1.17,C-,AB-,control,C-AB-,FALSE,FALSE,People who took Wellbupentin were not cured,People who took Atifloxacin and Atizolam were not cured,How well does the combination of Atifloxacin and Atizolam work?,How well does Atizolam work?,How well does Atifloxacin work?,How well does Wellbupentin work?,18,4,3,2,1,NA,NA
data_2019-09-03-14-15-06_lcptud45sh,1116,<p>How well does the combination of Atifloxacin and Atizolam work?</p>,NA,html-slider-response,106,91436,0.0-2.0-2.17,C-,AB-,control,C-AB-,FALSE,FALSE,People who took Wellbupentin were not cured,People who took Atifloxacin and Atizolam were not cured,How well does the combination of Atifloxacin and Atizolam work?,How well does Atizolam work?,How well does Atifloxacin work?,How well does Wellbupentin work?,18,4,3,2,1,0,q1
data_2019-09-03-14-15-06_lcptud45sh,593,<p>How well does Atizolam work?</p>,NA,html-slider-response,107,92030,0.0-2.0-3.17,C-,AB-,control,C-AB-,FALSE,FALSE,People who took Wellbupentin were not cured,People who took Atifloxacin and Atizolam were not cured,How well does the combination of Atifloxacin and Atizolam work?,How well does Atizolam work?,How well does Atifloxacin work?,How well does Wellbupentin work?,18,4,3,2,1,0,q2
data_2019-09-03-14-15-06_lcptud45sh,464,<p>How well does Atifloxacin work?</p>,NA,html-slider-response,108,92495,0.0-2.0-4.17,C-,AB-,control,C-AB-,FALSE,FALSE,People who took Wellbupentin were not cured,People who took Atifloxacin and Atizolam were not cured,How well does the combination of Atifloxacin and Atizolam work?,How well does Atizolam work?,How well does Atifloxacin work?,How well does Wellbupentin work?,18,4,3,2,1,0,q3
data_2019-09-03-14-15-06_lcptud45sh,575,<p>How well does Wellbupentin work?</p>,NA,html-slider-response,109,93070,0.0-2.0-5.17,C-,AB-,control,C-AB-,FALSE,FALSE,People who took Wellbupentin were not cured,People who took Atifloxacin and Atizolam were not cured,How well does the combination of Atifloxacin and Atizolam work?,How well does Atizolam work?,How well does Atifloxacin work?,How well does Wellbupentin work?,18,4,3,2,1,0,q4
data_2019-09-03-14-15-06_lcptud45sh,null,+,null,html-keyboard-response,110,93571,0.0-2.0-0.18,NA,NA,NA,NA,NA,NA,NA,NA,NA,NA,NA,NA,NA,NA,NA,NA,NA,NA,NA
data_2019-09-03-14-15-06_lcptud45sh,null,<p>People who took Pantoprofen were cured</p><p>People who took Hydrostatin and Atorvafloxacin were cured</p>,null,html-keyboard-response,111,94073,0.0-2.0-1.18,C+,AB+,control,C+AB+,TRUE,TRUE,People who took Pantoprofen were cured,People who took Hydrostatin and Atorvafloxacin were cured,How well does the combination of Hydrostatin and Atorvafloxacin work?,How well does Atorvafloxacin work?,How well does Hydrostatin work?,How well does Pantoprofen work?,15,4,3,2,1,NA,NA
data_2019-09-03-14-15-06_lcptud45sh,940,<p>How well does the combination of Hydrostatin and Atorvafloxacin work?</p>,NA,html-slider-response,112,95015,0.0-2.0-2.18,C+,AB+,control,C+AB+,TRUE,TRUE,People who took Pantoprofen were cured,People who took Hydrostatin and Atorvafloxacin were cured,How well does the combination of Hydrostatin and Atorvafloxacin work?,How well does Atorvafloxacin work?,How well does Hydrostatin work?,How well does Pantoprofen work?,15,4,3,2,1,0,q1
data_2019-09-03-14-15-06_lcptud45sh,585,<p>How well does Atorvafloxacin work?</p>,NA,html-slider-response,113,95601,0.0-2.0-3.18,C+,AB+,control,C+AB+,TRUE,TRUE,People who took Pantoprofen were cured,People who took Hydrostatin and Atorvafloxacin were cured,How well does the combination of Hydrostatin and Atorvafloxacin work?,How well does Atorvafloxacin work?,How well does Hydrostatin work?,How well does Pantoprofen work?,15,4,3,2,1,0,q2
data_2019-09-03-14-15-06_lcptud45sh,491,<p>How well does Hydrostatin work?</p>,NA,html-slider-response,114,96093,0.0-2.0-4.18,C+,AB+,control,C+AB+,TRUE,TRUE,People who took Pantoprofen were cured,People who took Hydrostatin and Atorvafloxacin were cured,How well does the combination of Hydrostatin and Atorvafloxacin work?,How well does Atorvafloxacin work?,How well does Hydrostatin work?,How well does Pantoprofen work?,15,4,3,2,1,0,q3
data_2019-09-03-14-15-06_lcptud45sh,596,<p>How well does Pantoprofen work?</p>,NA,html-slider-response,115,96689,0.0-2.0-5.18,C+,AB+,control,C+AB+,TRUE,TRUE,People who took Pantoprofen were cured,People who took Hydrostatin and Atorvafloxacin were cured,How well does the combination of Hydrostatin and Atorvafloxacin work?,How well does Atorvafloxacin work?,How well does Hydrostatin work?,How well does Pantoprofen work?,15,4,3,2,1,0,q4
data_2019-09-03-14-15-06_lcptud45sh,null,+,null,html-keyboard-response,116,97190,0.0-2.0-0.19,NA,NA,NA,NA,NA,NA,NA,NA,NA,NA,NA,NA,NA,NA,NA,NA,NA,NA,NA
data_2019-09-03-14-15-06_lcptud45sh,null,<p>People who took Lexabalta were not cured</p><p>People who took Lexabalta and Cyclopam were not cured</p>,null,html-keyboard-response,117,97691,0.0-2.0-1.19,A-,AB-,experimental,A-AB-,FALSE,FALSE,People who took Lexabalta were not cured,People who took Lexabalta and Cyclopam were not cured,How well does Lexabalta work?,How well does the combination of Lexabalta and Cyclopam work?,How well does Cyclopam work?,null,4,1,3,2,4,NA,NA
data_2019-09-03-14-15-06_lcptud45sh,611.9999999999854,<p>How well does Lexabalta work?</p>,NA,html-slider-response,118,98304,0.0-2.0-2.19,A-,AB-,experimental,A-AB-,FALSE,FALSE,People who took Lexabalta were not cured,People who took Lexabalta and Cyclopam were not cured,How well does Lexabalta work?,How well does the combination of Lexabalta and Cyclopam work?,How well does Cyclopam work?,null,4,1,3,2,4,0,q1
data_2019-09-03-14-15-06_lcptud45sh,422,<p>How well does the combination of Lexabalta and Cyclopam work?</p>,NA,html-slider-response,119,98726,0.0-2.0-3.19,A-,AB-,experimental,A-AB-,FALSE,FALSE,People who took Lexabalta were not cured,People who took Lexabalta and Cyclopam were not cured,How well does Lexabalta work?,How well does the combination of Lexabalta and Cyclopam work?,How well does Cyclopam work?,null,4,1,3,2,4,0,q2
data_2019-09-03-14-15-06_lcptud45sh,431,<p>How well does Cyclopam work?</p>,NA,html-slider-response,120,99158,0.0-2.0-4.19,A-,AB-,experimental,A-AB-,FALSE,FALSE,People who took Lexabalta were not cured,People who took Lexabalta and Cyclopam were not cured,How well does Lexabalta work?,How well does the combination of Lexabalta and Cyclopam work?,How well does Cyclopam work?,null,4,1,3,2,4,0,q3
data_2019-09-03-14-15-06_lcptud45sh,null,<p>null</p>,NA,html-slider-response,121,99163,0.0-2.0-5.19,A-,AB-,experimental,A-AB-,FALSE,FALSE,People who took Lexabalta were not cured,People who took Lexabalta and Cyclopam were not cured,How well does Lexabalta work?,How well does the combination of Lexabalta and Cyclopam work?,How well does Cyclopam work?,null,4,1,3,2,4,null,q4
data_2019-09-03-14-15-06_lcptud45sh,null,+,null,html-keyboard-response,122,99664,0.0-2.0-0.20,NA,NA,NA,NA,NA,NA,NA,NA,NA,NA,NA,NA,NA,NA,NA,NA,NA,NA,NA
data_2019-09-03-14-15-06_lcptud45sh,null,<p>People who took Xarmin and Azithropril were cured</p><p>People who took Xarmin were not cured</p>,null,html-keyboard-response,123,100166,0.0-2.0-1.20,AB+,A-,experimental,A-AB+,TRUE,FALSE,People who took Xarmin and Azithropril were cured,People who took Xarmin were not cured,null,How well does Azithropril work?,How well does the combination of Xarmin and Azithropril work?,How well does Xarmin work?,7,4,2,3,1,NA,NA
data_2019-09-03-14-15-06_lcptud45sh,null,<p>null</p>,NA,html-slider-response,124,100170,0.0-2.0-2.20,AB+,A-,experimental,A-AB+,TRUE,FALSE,People who took Xarmin and Azithropril were cured,People who took Xarmin were not cured,null,How well does Azithropril work?,How well does the combination of Xarmin and Azithropril work?,How well does Xarmin work?,7,4,2,3,1,null,q1
data_2019-09-03-14-15-06_lcptud45sh,675.9999999999854,<p>How well does Azithropril work?</p>,NA,html-slider-response,125,100847,0.0-2.0-3.20,AB+,A-,experimental,A-AB+,TRUE,FALSE,People who took Xarmin and Azithropril were cured,People who took Xarmin were not cured,null,How well does Azithropril work?,How well does the combination of Xarmin and Azithropril work?,How well does Xarmin work?,7,4,2,3,1,0,q2
data_2019-09-03-14-15-06_lcptud45sh,496,<p>How well does the combination of Xarmin and Azithropril work?</p>,NA,html-slider-response,126,101343,0.0-2.0-4.20,AB+,A-,experimental,A-AB+,TRUE,FALSE,People who took Xarmin and Azithropril were cured,People who took Xarmin were not cured,null,How well does Azithropril work?,How well does the combination of Xarmin and Azithropril work?,How well does Xarmin work?,7,4,2,3,1,0,q3
data_2019-09-03-14-15-06_lcptud45sh,552,<p>How well does Xarmin work?</p>,NA,html-slider-response,127,101896,0.0-2.0-5.20,AB+,A-,experimental,A-AB+,TRUE,FALSE,People who took Xarmin and Azithropril were cured,People who took Xarmin were not cured,null,How well does Azithropril work?,How well does the combination of Xarmin and Azithropril work?,How well does Xarmin work?,7,4,2,3,1,0,q4
data_2019-09-03-14-15-06_lcptud45sh,null,+,null,html-keyboard-response,128,102397,0.0-2.0-0.21,NA,NA,NA,NA,NA,NA,NA,NA,NA,NA,NA,NA,NA,NA,NA,NA,NA,NA,NA
data_2019-09-03-14-15-06_lcptud45sh,null,<p>People who took Melotan and Ciprodine were cured</p><p>People who took Ciproxicam were cured</p>,null,html-keyboard-response,129,102899,0.0-2.0-1.21,AB+,C+,control,C+AB+,TRUE,TRUE,People who took Melotan and Ciprodine were cured,People who took Ciproxicam were cured,null,How well does Ciprodine work?,How well does the combination of Melotan and Ciprodine work?,How well does Melotan work?,19,4,2,3,1,NA,NA
data_2019-09-03-14-15-06_lcptud45sh,null,<p>null</p>,NA,html-slider-response,130,102904,0.0-2.0-2.21,AB+,C+,control,C+AB+,TRUE,TRUE,People who took Melotan and Ciprodine were cured,People who took Ciproxicam were cured,null,How well does Ciprodine work?,How well does the combination of Melotan and Ciprodine work?,How well does Melotan work?,19,4,2,3,1,null,q1
data_2019-09-03-14-15-06_lcptud45sh,549,<p>How well does Ciprodine work?</p>,NA,html-slider-response,131,103453,0.0-2.0-3.21,AB+,C+,control,C+AB+,TRUE,TRUE,People who took Melotan and Ciprodine were cured,People who took Ciproxicam were cured,null,How well does Ciprodine work?,How well does the combination of Melotan and Ciprodine work?,How well does Melotan work?,19,4,2,3,1,0,q2
data_2019-09-03-14-15-06_lcptud45sh,529.9999999999854,<p>How well does the combination of Melotan and Ciprodine work?</p>,NA,html-slider-response,132,103984,0.0-2.0-4.21,AB+,C+,control,C+AB+,TRUE,TRUE,People who took Melotan and Ciprodine were cured,People who took Ciproxicam were cured,null,How well does Ciprodine work?,How well does the combination of Melotan and Ciprodine work?,How well does Melotan work?,19,4,2,3,1,0,q3
data_2019-09-03-14-15-06_lcptud45sh,530,<p>How well does Melotan work?</p>,NA,html-slider-response,133,104513,0.0-2.0-5.21,AB+,C+,control,C+AB+,TRUE,TRUE,People who took Melotan and Ciprodine were cured,People who took Ciproxicam were cured,null,How well does Ciprodine work?,How well does the combination of Melotan and Ciprodine work?,How well does Melotan work?,19,4,2,3,1,0,q4
