file_id,rt,stimulus,key_press,trial_type,trial_index,time_elapsed,internal_node_id,premise_one,premise_two,p1_outcome,p2_outcome,p1_sentence,p2_sentence,q1,q2,q3,q4,trial_number,q1_type,q2_type,q3_type,q4_type,response,question_order
data_2019-09-03-13-06-13_s57gyquyha,null,Welcome to the experiment. Press any key to begin.,null,html-keyboard-response,0,4,0.0-0.0,NA,NA,NA,NA,NA,NA,NA,NA,NA,NA,NA,NA,NA,NA,NA,NA,NA
data_2019-09-03-13-06-13_s57gyquyha,null,"<p>In this task, you will read the outcomes of drug trials and then judge drug efficacies</p><p>Press any key to begin.</p>",null,html-keyboard-response,1,6,0.0-1.0,NA,NA,NA,NA,NA,NA,NA,NA,NA,NA,NA,NA,NA,NA,NA,NA,NA
data_2019-09-03-13-06-13_s57gyquyha,null,+,null,html-keyboard-response,2,1009,0.0-2.0-0.0,NA,NA,NA,NA,NA,NA,NA,NA,NA,NA,NA,NA,NA,NA,NA,NA,NA
data_2019-09-03-13-06-13_s57gyquyha,null,<p>People who took Doxypram were cured</p><p>People who took Doxypram and Acetapril were not cured</p>,null,html-keyboard-response,3,1011,0.0-2.0-1.0,A+,AB-,TRUE,FALSE,People who took Doxypram were cured,People who took Doxypram and Acetapril were not cured,How well does Doxypram work?,How well does the combination of Doxypram and Acetapril work?,How well does Acetapril work?,null,2,1,3,2,4,NA,NA
data_2019-09-03-13-06-13_s57gyquyha,null,<p>How well does Doxypram work?</p>,NA,html-slider-response,4,1032,0.0-2.0-2.0,A+,AB-,TRUE,FALSE,People who took Doxypram were cured,People who took Doxypram and Acetapril were not cured,How well does Doxypram work?,How well does the combination of Doxypram and Acetapril work?,How well does Acetapril work?,null,2,1,3,2,4,null,q1
data_2019-09-03-13-06-13_s57gyquyha,null,<p>How well does the combination of Doxypram and Acetapril work?</p>,NA,html-slider-response,5,1040,0.0-2.0-3.0,A+,AB-,TRUE,FALSE,People who took Doxypram were cured,People who took Doxypram and Acetapril were not cured,How well does Doxypram work?,How well does the combination of Doxypram and Acetapril work?,How well does Acetapril work?,null,2,1,3,2,4,null,q2
data_2019-09-03-13-06-13_s57gyquyha,null,<p>How well does Acetapril work?</p>,NA,html-slider-response,6,1048,0.0-2.0-4.0,A+,AB-,TRUE,FALSE,People who took Doxypram were cured,People who took Doxypram and Acetapril were not cured,How well does Doxypram work?,How well does the combination of Doxypram and Acetapril work?,How well does Acetapril work?,null,2,1,3,2,4,null,q3
data_2019-09-03-13-06-13_s57gyquyha,null,<p>null</p>,NA,html-slider-response,7,1062,0.0-2.0-5.0,A+,AB-,TRUE,FALSE,People who took Doxypram were cured,People who took Doxypram and Acetapril were not cured,How well does Doxypram work?,How well does the combination of Doxypram and Acetapril work?,How well does Acetapril work?,null,2,1,3,2,4,null,q4
data_2019-09-03-13-06-13_s57gyquyha,null,+,null,html-keyboard-response,8,1067,0.0-2.0-0.1,NA,NA,NA,NA,NA,NA,NA,NA,NA,NA,NA,NA,NA,NA,NA,NA,NA
data_2019-09-03-13-06-13_s57gyquyha,null,<p>People who took Atorvanax were not cured</p><p>People who took Atorvanax and Clonabalta were cured</p>,null,html-keyboard-response,9,1075,0.0-2.0-1.1,A-,AB+,FALSE,TRUE,People who took Atorvanax were not cured,People who took Atorvanax and Clonabalta were cured,null,How well does Atorvanax work?,How well does the combination of Atorvanax and Clonabalta work?,How well does Clonabalta work?,3,4,1,3,2,NA,NA
data_2019-09-03-13-06-13_s57gyquyha,null,<p>null</p>,NA,html-slider-response,10,1081,0.0-2.0-2.1,A-,AB+,FALSE,TRUE,People who took Atorvanax were not cured,People who took Atorvanax and Clonabalta were cured,null,How well does Atorvanax work?,How well does the combination of Atorvanax and Clonabalta work?,How well does Clonabalta work?,3,4,1,3,2,null,q1
data_2019-09-03-13-06-13_s57gyquyha,null,<p>How well does Atorvanax work?</p>,NA,html-slider-response,11,1097,0.0-2.0-3.1,A-,AB+,FALSE,TRUE,People who took Atorvanax were not cured,People who took Atorvanax and Clonabalta were cured,null,How well does Atorvanax work?,How well does the combination of Atorvanax and Clonabalta work?,How well does Clonabalta work?,3,4,1,3,2,null,q2
data_2019-09-03-13-06-13_s57gyquyha,null,<p>How well does the combination of Atorvanax and Clonabalta work?</p>,NA,html-slider-response,12,1102,0.0-2.0-4.1,A-,AB+,FALSE,TRUE,People who took Atorvanax were not cured,People who took Atorvanax and Clonabalta were cured,null,How well does Atorvanax work?,How well does the combination of Atorvanax and Clonabalta work?,How well does Clonabalta work?,3,4,1,3,2,null,q3
data_2019-09-03-13-06-13_s57gyquyha,null,<p>How well does Clonabalta work?</p>,NA,html-slider-response,13,1113,0.0-2.0-5.1,A-,AB+,FALSE,TRUE,People who took Atorvanax were not cured,People who took Atorvanax and Clonabalta were cured,null,How well does Atorvanax work?,How well does the combination of Atorvanax and Clonabalta work?,How well does Clonabalta work?,3,4,1,3,2,null,q4
data_2019-09-03-13-06-13_s57gyquyha,null,+,null,html-keyboard-response,14,1118,0.0-2.0-0.2,NA,NA,NA,NA,NA,NA,NA,NA,NA,NA,NA,NA,NA,NA,NA,NA,NA
data_2019-09-03-13-06-13_s57gyquyha,null,<p>People who took Ibuxen and Ciprodone were cured</p><p>People who took Wellbuloft were cured</p>,null,html-keyboard-response,15,1125,0.0-2.0-1.2,AB+,C+,TRUE,TRUE,People who took Ibuxen and Ciprodone were cured,People who took Wellbuloft were cured,How well does Ciprodone work?,null,How well does Ibuxen work?,How well does the combination of Ibuxen and Ciprodone work?,19,2,4,1,3,NA,NA
data_2019-09-03-13-06-13_s57gyquyha,null,<p>How well does Ciprodone work?</p>,NA,html-slider-response,16,1131,0.0-2.0-2.2,AB+,C+,TRUE,TRUE,People who took Ibuxen and Ciprodone were cured,People who took Wellbuloft were cured,How well does Ciprodone work?,null,How well does Ibuxen work?,How well does the combination of Ibuxen and Ciprodone work?,19,2,4,1,3,null,q1
data_2019-09-03-13-06-13_s57gyquyha,null,<p>null</p>,NA,html-slider-response,17,1147,0.0-2.0-3.2,AB+,C+,TRUE,TRUE,People who took Ibuxen and Ciprodone were cured,People who took Wellbuloft were cured,How well does Ciprodone work?,null,How well does Ibuxen work?,How well does the combination of Ibuxen and Ciprodone work?,19,2,4,1,3,null,q2
data_2019-09-03-13-06-13_s57gyquyha,null,<p>How well does Ibuxen work?</p>,NA,html-slider-response,18,1152,0.0-2.0-4.2,AB+,C+,TRUE,TRUE,People who took Ibuxen and Ciprodone were cured,People who took Wellbuloft were cured,How well does Ciprodone work?,null,How well does Ibuxen work?,How well does the combination of Ibuxen and Ciprodone work?,19,2,4,1,3,null,q3
data_2019-09-03-13-06-13_s57gyquyha,null,<p>How well does the combination of Ibuxen and Ciprodone work?</p>,NA,html-slider-response,19,1163,0.0-2.0-5.2,AB+,C+,TRUE,TRUE,People who took Ibuxen and Ciprodone were cured,People who took Wellbuloft were cured,How well does Ciprodone work?,null,How well does Ibuxen work?,How well does the combination of Ibuxen and Ciprodone work?,19,2,4,1,3,null,q4
data_2019-09-03-13-06-13_s57gyquyha,null,+,null,html-keyboard-response,20,1168,0.0-2.0-0.3,NA,NA,NA,NA,NA,NA,NA,NA,NA,NA,NA,NA,NA,NA,NA,NA,NA
data_2019-09-03-13-06-13_s57gyquyha,null,<p>People who took Zoprolol were cured</p><p>People who took Melodeine and Cyclorall were not cured</p>,null,html-keyboard-response,21,1174,0.0-2.0-1.3,C+,AB-,TRUE,FALSE,People who took Zoprolol were cured,People who took Melodeine and Cyclorall were not cured,How well does the combination of Melodeine and Cyclorall work?,How well does Melodeine work?,How well does Zoprolol work?,How well does Cyclorall work?,16,4,2,1,3,NA,NA
data_2019-09-03-13-06-13_s57gyquyha,null,<p>How well does the combination of Melodeine and Cyclorall work?</p>,NA,html-slider-response,22,1182,0.0-2.0-2.3,C+,AB-,TRUE,FALSE,People who took Zoprolol were cured,People who took Melodeine and Cyclorall were not cured,How well does the combination of Melodeine and Cyclorall work?,How well does Melodeine work?,How well does Zoprolol work?,How well does Cyclorall work?,16,4,2,1,3,null,q1
data_2019-09-03-13-06-13_s57gyquyha,null,<p>How well does Melodeine work?</p>,NA,html-slider-response,23,1197,0.0-2.0-3.3,C+,AB-,TRUE,FALSE,People who took Zoprolol were cured,People who took Melodeine and Cyclorall were not cured,How well does the combination of Melodeine and Cyclorall work?,How well does Melodeine work?,How well does Zoprolol work?,How well does Cyclorall work?,16,4,2,1,3,null,q2
data_2019-09-03-13-06-13_s57gyquyha,null,<p>How well does Zoprolol work?</p>,NA,html-slider-response,24,1202,0.0-2.0-4.3,C+,AB-,TRUE,FALSE,People who took Zoprolol were cured,People who took Melodeine and Cyclorall were not cured,How well does the combination of Melodeine and Cyclorall work?,How well does Melodeine work?,How well does Zoprolol work?,How well does Cyclorall work?,16,4,2,1,3,null,q3
data_2019-09-03-13-06-13_s57gyquyha,null,<p>How well does Cyclorall work?</p>,NA,html-slider-response,25,1213,0.0-2.0-5.3,C+,AB-,TRUE,FALSE,People who took Zoprolol were cured,People who took Melodeine and Cyclorall were not cured,How well does the combination of Melodeine and Cyclorall work?,How well does Melodeine work?,How well does Zoprolol work?,How well does Cyclorall work?,16,4,2,1,3,null,q4
data_2019-09-03-13-06-13_s57gyquyha,null,+,null,html-keyboard-response,26,1218,0.0-2.0-0.4,NA,NA,NA,NA,NA,NA,NA,NA,NA,NA,NA,NA,NA,NA,NA,NA,NA
data_2019-09-03-13-06-13_s57gyquyha,null,<p>People who took Pantozolam and Lorataptyline were not cured</p><p>People who took Pantozolam were cured</p>,null,html-keyboard-response,27,1225,0.0-2.0-1.4,AB-,A+,FALSE,TRUE,People who took Pantozolam and Lorataptyline were not cured,People who took Pantozolam were cured,How well does the combination of Pantozolam and Lorataptyline work?,How well does Lorataptyline work?,null,How well does Pantozolam work?,6,3,2,4,1,NA,NA
data_2019-09-03-13-06-13_s57gyquyha,null,<p>How well does the combination of Pantozolam and Lorataptyline work?</p>,NA,html-slider-response,28,1231,0.0-2.0-2.4,AB-,A+,FALSE,TRUE,People who took Pantozolam and Lorataptyline were not cured,People who took Pantozolam were cured,How well does the combination of Pantozolam and Lorataptyline work?,How well does Lorataptyline work?,null,How well does Pantozolam work?,6,3,2,4,1,null,q1
data_2019-09-03-13-06-13_s57gyquyha,null,<p>How well does Lorataptyline work?</p>,NA,html-slider-response,29,1247,0.0-2.0-3.4,AB-,A+,FALSE,TRUE,People who took Pantozolam and Lorataptyline were not cured,People who took Pantozolam were cured,How well does the combination of Pantozolam and Lorataptyline work?,How well does Lorataptyline work?,null,How well does Pantozolam work?,6,3,2,4,1,null,q2
data_2019-09-03-13-06-13_s57gyquyha,null,<p>null</p>,NA,html-slider-response,30,1252,0.0-2.0-4.4,AB-,A+,FALSE,TRUE,People who took Pantozolam and Lorataptyline were not cured,People who took Pantozolam were cured,How well does the combination of Pantozolam and Lorataptyline work?,How well does Lorataptyline work?,null,How well does Pantozolam work?,6,3,2,4,1,null,q3
data_2019-09-03-13-06-13_s57gyquyha,null,<p>How well does Pantozolam work?</p>,NA,html-slider-response,31,1262,0.0-2.0-5.4,AB-,A+,FALSE,TRUE,People who took Pantozolam and Lorataptyline were not cured,People who took Pantozolam were cured,How well does the combination of Pantozolam and Lorataptyline work?,How well does Lorataptyline work?,null,How well does Pantozolam work?,6,3,2,4,1,null,q4
data_2019-09-03-13-06-13_s57gyquyha,null,+,null,html-keyboard-response,32,1267,0.0-2.0-0.5,NA,NA,NA,NA,NA,NA,NA,NA,NA,NA,NA,NA,NA,NA,NA,NA,NA
data_2019-09-03-13-06-13_s57gyquyha,null,<p>People who took Doxymycin were cured</p><p>People who took Doxymycin and Alpragra were cured</p>,null,html-keyboard-response,33,1276,0.0-2.0-1.5,A+,AB+,TRUE,TRUE,People who took Doxymycin were cured,People who took Doxymycin and Alpragra were cured,How well does the combination of Doxymycin and Alpragra work?,How well does Doxymycin work?,null,How well does Alpragra work?,1,3,1,4,2,NA,NA
data_2019-09-03-13-06-13_s57gyquyha,null,<p>How well does the combination of Doxymycin and Alpragra work?</p>,NA,html-slider-response,34,1282,0.0-2.0-2.5,A+,AB+,TRUE,TRUE,People who took Doxymycin were cured,People who took Doxymycin and Alpragra were cured,How well does the combination of Doxymycin and Alpragra work?,How well does Doxymycin work?,null,How well does Alpragra work?,1,3,1,4,2,null,q1
data_2019-09-03-13-06-13_s57gyquyha,null,<p>How well does Doxymycin work?</p>,NA,html-slider-response,35,1297,0.0-2.0-3.5,A+,AB+,TRUE,TRUE,People who took Doxymycin were cured,People who took Doxymycin and Alpragra were cured,How well does the combination of Doxymycin and Alpragra work?,How well does Doxymycin work?,null,How well does Alpragra work?,1,3,1,4,2,null,q2
data_2019-09-03-13-06-13_s57gyquyha,null,<p>null</p>,NA,html-slider-response,36,1302,0.0-2.0-4.5,A+,AB+,TRUE,TRUE,People who took Doxymycin were cured,People who took Doxymycin and Alpragra were cured,How well does the combination of Doxymycin and Alpragra work?,How well does Doxymycin work?,null,How well does Alpragra work?,1,3,1,4,2,null,q3
data_2019-09-03-13-06-13_s57gyquyha,null,<p>How well does Alpragra work?</p>,NA,html-slider-response,37,1313,0.0-2.0-5.5,A+,AB+,TRUE,TRUE,People who took Doxymycin were cured,People who took Doxymycin and Alpragra were cured,How well does the combination of Doxymycin and Alpragra work?,How well does Doxymycin work?,null,How well does Alpragra work?,1,3,1,4,2,null,q4
data_2019-09-03-13-06-13_s57gyquyha,null,+,null,html-keyboard-response,38,1318,0.0-2.0-0.6,NA,NA,NA,NA,NA,NA,NA,NA,NA,NA,NA,NA,NA,NA,NA,NA,NA
data_2019-09-03-13-06-13_s57gyquyha,null,<p>People who took Oxydeine and Acetadeine were not cured</p>,null,html-keyboard-response,39,1325,0.0-2.0-1.6,AB-,null,FALSE,null,People who took Oxydeine and Acetadeine were not cured,null,How well does Acetadeine work?,How well does the combination of Oxydeine and Acetadeine work?,null,How well does Oxydeine work?,12,2,3,4,1,NA,NA
data_2019-09-03-13-06-13_s57gyquyha,null,<p>How well does Acetadeine work?</p>,NA,html-slider-response,40,1332,0.0-2.0-2.6,AB-,null,FALSE,null,People who took Oxydeine and Acetadeine were not cured,null,How well does Acetadeine work?,How well does the combination of Oxydeine and Acetadeine work?,null,How well does Oxydeine work?,12,2,3,4,1,null,q1
data_2019-09-03-13-06-13_s57gyquyha,null,<p>How well does the combination of Oxydeine and Acetadeine work?</p>,NA,html-slider-response,41,1347,0.0-2.0-3.6,AB-,null,FALSE,null,People who took Oxydeine and Acetadeine were not cured,null,How well does Acetadeine work?,How well does the combination of Oxydeine and Acetadeine work?,null,How well does Oxydeine work?,12,2,3,4,1,null,q2
data_2019-09-03-13-06-13_s57gyquyha,null,<p>null</p>,NA,html-slider-response,42,1352,0.0-2.0-4.6,AB-,null,FALSE,null,People who took Oxydeine and Acetadeine were not cured,null,How well does Acetadeine work?,How well does the combination of Oxydeine and Acetadeine work?,null,How well does Oxydeine work?,12,2,3,4,1,null,q3
data_2019-09-03-13-06-13_s57gyquyha,null,<p>How well does Oxydeine work?</p>,NA,html-slider-response,43,1362,0.0-2.0-5.6,AB-,null,FALSE,null,People who took Oxydeine and Acetadeine were not cured,null,How well does Acetadeine work?,How well does the combination of Oxydeine and Acetadeine work?,null,How well does Oxydeine work?,12,2,3,4,1,null,q4
data_2019-09-03-13-06-13_s57gyquyha,null,+,null,html-keyboard-response,44,1367,0.0-2.0-0.7,NA,NA,NA,NA,NA,NA,NA,NA,NA,NA,NA,NA,NA,NA,NA,NA,NA
data_2019-09-03-13-06-13_s57gyquyha,null,<p>People who took Metfoca were not cured</p>,null,html-keyboard-response,45,1373,0.0-2.0-1.7,A-,null,FALSE,null,People who took Metfoca were not cured,null,null,null,null,How well does Metfoca work?,10,3,2,4,1,NA,NA
data_2019-09-03-13-06-13_s57gyquyha,null,<p>null</p>,NA,html-slider-response,46,1381,0.0-2.0-2.7,A-,null,FALSE,null,People who took Metfoca were not cured,null,null,null,null,How well does Metfoca work?,10,3,2,4,1,null,q1
data_2019-09-03-13-06-13_s57gyquyha,null,<p>null</p>,NA,html-slider-response,47,1397,0.0-2.0-3.7,A-,null,FALSE,null,People who took Metfoca were not cured,null,null,null,null,How well does Metfoca work?,10,3,2,4,1,null,q2
data_2019-09-03-13-06-13_s57gyquyha,null,<p>null</p>,NA,html-slider-response,48,1402,0.0-2.0-4.7,A-,null,FALSE,null,People who took Metfoca were not cured,null,null,null,null,How well does Metfoca work?,10,3,2,4,1,null,q3
data_2019-09-03-13-06-13_s57gyquyha,null,<p>How well does Metfoca work?</p>,NA,html-slider-response,49,1413,0.0-2.0-5.7,A-,null,FALSE,null,People who took Metfoca were not cured,null,null,null,null,How well does Metfoca work?,10,3,2,4,1,null,q4
data_2019-09-03-13-06-13_s57gyquyha,null,+,null,html-keyboard-response,50,1418,0.0-2.0-0.8,NA,NA,NA,NA,NA,NA,NA,NA,NA,NA,NA,NA,NA,NA,NA,NA,NA
data_2019-09-03-13-06-13_s57gyquyha,null,<p>People who took Xatan were not cured</p><p>People who took Amitrisone and Addeprazole were not cured</p>,null,html-keyboard-response,51,1425,0.0-2.0-1.8,C-,AB-,FALSE,FALSE,People who took Xatan were not cured,People who took Amitrisone and Addeprazole were not cured,How well does Addeprazole work?,How well does Amitrisone work?,How well does Xatan work?,How well does the combination of Amitrisone and Addeprazole work?,18,3,2,1,4,NA,NA
data_2019-09-03-13-06-13_s57gyquyha,null,<p>How well does Addeprazole work?</p>,NA,html-slider-response,52,1431,0.0-2.0-2.8,C-,AB-,FALSE,FALSE,People who took Xatan were not cured,People who took Amitrisone and Addeprazole were not cured,How well does Addeprazole work?,How well does Amitrisone work?,How well does Xatan work?,How well does the combination of Amitrisone and Addeprazole work?,18,3,2,1,4,null,q1
data_2019-09-03-13-06-13_s57gyquyha,null,<p>How well does Amitrisone work?</p>,NA,html-slider-response,53,1446,0.0-2.0-3.8,C-,AB-,FALSE,FALSE,People who took Xatan were not cured,People who took Amitrisone and Addeprazole were not cured,How well does Addeprazole work?,How well does Amitrisone work?,How well does Xatan work?,How well does the combination of Amitrisone and Addeprazole work?,18,3,2,1,4,null,q2
data_2019-09-03-13-06-13_s57gyquyha,null,<p>How well does Xatan work?</p>,NA,html-slider-response,54,1451,0.0-2.0-4.8,C-,AB-,FALSE,FALSE,People who took Xatan were not cured,People who took Amitrisone and Addeprazole were not cured,How well does Addeprazole work?,How well does Amitrisone work?,How well does Xatan work?,How well does the combination of Amitrisone and Addeprazole work?,18,3,2,1,4,null,q3
data_2019-09-03-13-06-13_s57gyquyha,null,<p>How well does the combination of Amitrisone and Addeprazole work?</p>,NA,html-slider-response,55,1463,0.0-2.0-5.8,C-,AB-,FALSE,FALSE,People who took Xatan were not cured,People who took Amitrisone and Addeprazole were not cured,How well does Addeprazole work?,How well does Amitrisone work?,How well does Xatan work?,How well does the combination of Amitrisone and Addeprazole work?,18,3,2,1,4,null,q4
data_2019-09-03-13-06-13_s57gyquyha,null,+,null,html-keyboard-response,56,1469,0.0-2.0-0.9,NA,NA,NA,NA,NA,NA,NA,NA,NA,NA,NA,NA,NA,NA,NA,NA,NA
data_2019-09-03-13-06-13_s57gyquyha,null,<p>People who took Hydroptyline and Addermin were cured</p><p>People who took Hydroptyline were cured</p>,null,html-keyboard-response,57,1475,0.0-2.0-1.9,AB+,A+,TRUE,TRUE,People who took Hydroptyline and Addermin were cured,People who took Hydroptyline were cured,How well does Hydroptyline work?,null,How well does Addermin work?,How well does the combination of Hydroptyline and Addermin work?,5,1,4,2,3,NA,NA
data_2019-09-03-13-06-13_s57gyquyha,null,<p>How well does Hydroptyline work?</p>,NA,html-slider-response,58,1481,0.0-2.0-2.9,AB+,A+,TRUE,TRUE,People who took Hydroptyline and Addermin were cured,People who took Hydroptyline were cured,How well does Hydroptyline work?,null,How well does Addermin work?,How well does the combination of Hydroptyline and Addermin work?,5,1,4,2,3,null,q1
data_2019-09-03-13-06-13_s57gyquyha,null,<p>null</p>,NA,html-slider-response,59,1497,0.0-2.0-3.9,AB+,A+,TRUE,TRUE,People who took Hydroptyline and Addermin were cured,People who took Hydroptyline were cured,How well does Hydroptyline work?,null,How well does Addermin work?,How well does the combination of Hydroptyline and Addermin work?,5,1,4,2,3,null,q2
data_2019-09-03-13-06-13_s57gyquyha,null,<p>How well does Addermin work?</p>,NA,html-slider-response,60,1502,0.0-2.0-4.9,AB+,A+,TRUE,TRUE,People who took Hydroptyline and Addermin were cured,People who took Hydroptyline were cured,How well does Hydroptyline work?,null,How well does Addermin work?,How well does the combination of Hydroptyline and Addermin work?,5,1,4,2,3,null,q3
data_2019-09-03-13-06-13_s57gyquyha,null,<p>How well does the combination of Hydroptyline and Addermin work?</p>,NA,html-slider-response,61,1512,0.0-2.0-5.9,AB+,A+,TRUE,TRUE,People who took Hydroptyline and Addermin were cured,People who took Hydroptyline were cured,How well does Hydroptyline work?,null,How well does Addermin work?,How well does the combination of Hydroptyline and Addermin work?,5,1,4,2,3,null,q4
data_2019-09-03-13-06-13_s57gyquyha,null,+,null,html-keyboard-response,62,1517,0.0-2.0-0.10,NA,NA,NA,NA,NA,NA,NA,NA,NA,NA,NA,NA,NA,NA,NA,NA,NA
data_2019-09-03-13-06-13_s57gyquyha,null,<p>People who took Clindaprofen were cured</p>,null,html-keyboard-response,63,1525,0.0-2.0-1.10,A+,null,TRUE,null,People who took Clindaprofen were cured,null,null,null,How well does Clindaprofen work?,null,9,3,2,1,4,NA,NA
data_2019-09-03-13-06-13_s57gyquyha,null,<p>null</p>,NA,html-slider-response,64,1532,0.0-2.0-2.10,A+,null,TRUE,null,People who took Clindaprofen were cured,null,null,null,How well does Clindaprofen work?,null,9,3,2,1,4,null,q1
data_2019-09-03-13-06-13_s57gyquyha,null,<p>null</p>,NA,html-slider-response,65,1546,0.0-2.0-3.10,A+,null,TRUE,null,People who took Clindaprofen were cured,null,null,null,How well does Clindaprofen work?,null,9,3,2,1,4,null,q2
data_2019-09-03-13-06-13_s57gyquyha,null,<p>How well does Clindaprofen work?</p>,NA,html-slider-response,66,1551,0.0-2.0-4.10,A+,null,TRUE,null,People who took Clindaprofen were cured,null,null,null,How well does Clindaprofen work?,null,9,3,2,1,4,null,q3
data_2019-09-03-13-06-13_s57gyquyha,null,<p>null</p>,NA,html-slider-response,67,1563,0.0-2.0-5.10,A+,null,TRUE,null,People who took Clindaprofen were cured,null,null,null,How well does Clindaprofen work?,null,9,3,2,1,4,null,q4
data_2019-09-03-13-06-13_s57gyquyha,null,+,null,html-keyboard-response,68,1568,0.0-2.0-0.11,NA,NA,NA,NA,NA,NA,NA,NA,NA,NA,NA,NA,NA,NA,NA,NA,NA
data_2019-09-03-13-06-13_s57gyquyha,null,<p>People who took Oxygra and Metfoprofen were not cured</p><p>People who took Gabadeine were cured</p>,null,html-keyboard-response,69,1574,0.0-2.0-1.11,AB-,C+,FALSE,TRUE,People who took Oxygra and Metfoprofen were not cured,People who took Gabadeine were cured,null,How well does Metfoprofen work?,How well does Oxygra work?,How well does the combination of Oxygra and Metfoprofen work?,20,4,2,1,3,NA,NA
data_2019-09-03-13-06-13_s57gyquyha,null,<p>null</p>,NA,html-slider-response,70,1582,0.0-2.0-2.11,AB-,C+,FALSE,TRUE,People who took Oxygra and Metfoprofen were not cured,People who took Gabadeine were cured,null,How well does Metfoprofen work?,How well does Oxygra work?,How well does the combination of Oxygra and Metfoprofen work?,20,4,2,1,3,null,q1
data_2019-09-03-13-06-13_s57gyquyha,null,<p>How well does Metfoprofen work?</p>,NA,html-slider-response,71,1597,0.0-2.0-3.11,AB-,C+,FALSE,TRUE,People who took Oxygra and Metfoprofen were not cured,People who took Gabadeine were cured,null,How well does Metfoprofen work?,How well does Oxygra work?,How well does the combination of Oxygra and Metfoprofen work?,20,4,2,1,3,null,q2
data_2019-09-03-13-06-13_s57gyquyha,null,<p>How well does Oxygra work?</p>,NA,html-slider-response,72,1602,0.0-2.0-4.11,AB-,C+,FALSE,TRUE,People who took Oxygra and Metfoprofen were not cured,People who took Gabadeine were cured,null,How well does Metfoprofen work?,How well does Oxygra work?,How well does the combination of Oxygra and Metfoprofen work?,20,4,2,1,3,null,q3
data_2019-09-03-13-06-13_s57gyquyha,null,<p>How well does the combination of Oxygra and Metfoprofen work?</p>,NA,html-slider-response,73,1612,0.0-2.0-5.11,AB-,C+,FALSE,TRUE,People who took Oxygra and Metfoprofen were not cured,People who took Gabadeine were cured,null,How well does Metfoprofen work?,How well does Oxygra work?,How well does the combination of Oxygra and Metfoprofen work?,20,4,2,1,3,null,q4
data_2019-09-03-13-06-13_s57gyquyha,null,+,null,html-keyboard-response,74,1617,0.0-2.0-0.12,NA,NA,NA,NA,NA,NA,NA,NA,NA,NA,NA,NA,NA,NA,NA,NA,NA
data_2019-09-03-13-06-13_s57gyquyha,null,<p>People who took Trazotrin were cured</p><p>People who took Hydrodipine and Clonacillin were cured</p>,null,html-keyboard-response,75,1625,0.0-2.0-1.12,C+,AB+,TRUE,TRUE,People who took Trazotrin were cured,People who took Hydrodipine and Clonacillin were cured,How well does Hydrodipine work?,How well does Clonacillin work?,How well does Trazotrin work?,How well does the combination of Hydrodipine and Clonacillin work?,15,2,3,1,4,NA,NA
data_2019-09-03-13-06-13_s57gyquyha,null,<p>How well does Hydrodipine work?</p>,NA,html-slider-response,76,1632,0.0-2.0-2.12,C+,AB+,TRUE,TRUE,People who took Trazotrin were cured,People who took Hydrodipine and Clonacillin were cured,How well does Hydrodipine work?,How well does Clonacillin work?,How well does Trazotrin work?,How well does the combination of Hydrodipine and Clonacillin work?,15,2,3,1,4,null,q1
data_2019-09-03-13-06-13_s57gyquyha,null,<p>How well does Clonacillin work?</p>,NA,html-slider-response,77,1646,0.0-2.0-3.12,C+,AB+,TRUE,TRUE,People who took Trazotrin were cured,People who took Hydrodipine and Clonacillin were cured,How well does Hydrodipine work?,How well does Clonacillin work?,How well does Trazotrin work?,How well does the combination of Hydrodipine and Clonacillin work?,15,2,3,1,4,null,q2
data_2019-09-03-13-06-13_s57gyquyha,null,<p>How well does Trazotrin work?</p>,NA,html-slider-response,78,1651,0.0-2.0-4.12,C+,AB+,TRUE,TRUE,People who took Trazotrin were cured,People who took Hydrodipine and Clonacillin were cured,How well does Hydrodipine work?,How well does Clonacillin work?,How well does Trazotrin work?,How well does the combination of Hydrodipine and Clonacillin work?,15,2,3,1,4,null,q3
data_2019-09-03-13-06-13_s57gyquyha,null,<p>How well does the combination of Hydrodipine and Clonacillin work?</p>,NA,html-slider-response,79,1663,0.0-2.0-5.12,C+,AB+,TRUE,TRUE,People who took Trazotrin were cured,People who took Hydrodipine and Clonacillin were cured,How well does Hydrodipine work?,How well does Clonacillin work?,How well does Trazotrin work?,How well does the combination of Hydrodipine and Clonacillin work?,15,2,3,1,4,null,q4
data_2019-09-03-13-06-13_s57gyquyha,null,+,null,html-keyboard-response,80,1668,0.0-2.0-0.13,NA,NA,NA,NA,NA,NA,NA,NA,NA,NA,NA,NA,NA,NA,NA,NA,NA
data_2019-09-03-13-06-13_s57gyquyha,null,<p>People who took Loratadeine were cured</p>,null,html-keyboard-response,81,1675,0.0-2.0-1.13,C+,null,TRUE,null,People who took Loratadeine were cured,null,null,null,How well does Loratadeine work?,null,13,3,4,1,2,NA,NA
data_2019-09-03-13-06-13_s57gyquyha,null,<p>null</p>,NA,html-slider-response,82,1681,0.0-2.0-2.13,C+,null,TRUE,null,People who took Loratadeine were cured,null,null,null,How well does Loratadeine work?,null,13,3,4,1,2,null,q1
data_2019-09-03-13-06-13_s57gyquyha,null,<p>null</p>,NA,html-slider-response,83,1697,0.0-2.0-3.13,C+,null,TRUE,null,People who took Loratadeine were cured,null,null,null,How well does Loratadeine work?,null,13,3,4,1,2,null,q2
data_2019-09-03-13-06-13_s57gyquyha,null,<p>How well does Loratadeine work?</p>,NA,html-slider-response,84,1702,0.0-2.0-4.13,C+,null,TRUE,null,People who took Loratadeine were cured,null,null,null,How well does Loratadeine work?,null,13,3,4,1,2,null,q3
data_2019-09-03-13-06-13_s57gyquyha,null,<p>null</p>,NA,html-slider-response,85,1713,0.0-2.0-5.13,C+,null,TRUE,null,People who took Loratadeine were cured,null,null,null,How well does Loratadeine work?,null,13,3,4,1,2,null,q4
data_2019-09-03-13-06-13_s57gyquyha,null,+,null,html-keyboard-response,86,1718,0.0-2.0-0.14,NA,NA,NA,NA,NA,NA,NA,NA,NA,NA,NA,NA,NA,NA,NA,NA,NA
data_2019-09-03-13-06-13_s57gyquyha,null,<p>People who took Alpraxicam were not cured</p><p>People who took Predniptyline and Clindarmin were cured</p>,null,html-keyboard-response,87,1725,0.0-2.0-1.14,C-,AB+,FALSE,TRUE,People who took Alpraxicam were not cured,People who took Predniptyline and Clindarmin were cured,How well does Clindarmin work?,How well does Alpraxicam work?,How well does the combination of Predniptyline and Clindarmin work?,How well does Predniptyline work?,17,3,1,4,2,NA,NA
data_2019-09-03-13-06-13_s57gyquyha,null,<p>How well does Clindarmin work?</p>,NA,html-slider-response,88,1732,0.0-2.0-2.14,C-,AB+,FALSE,TRUE,People who took Alpraxicam were not cured,People who took Predniptyline and Clindarmin were cured,How well does Clindarmin work?,How well does Alpraxicam work?,How well does the combination of Predniptyline and Clindarmin work?,How well does Predniptyline work?,17,3,1,4,2,null,q1
data_2019-09-03-13-06-13_s57gyquyha,null,<p>How well does Alpraxicam work?</p>,NA,html-slider-response,89,1746,0.0-2.0-3.14,C-,AB+,FALSE,TRUE,People who took Alpraxicam were not cured,People who took Predniptyline and Clindarmin were cured,How well does Clindarmin work?,How well does Alpraxicam work?,How well does the combination of Predniptyline and Clindarmin work?,How well does Predniptyline work?,17,3,1,4,2,null,q2
data_2019-09-03-13-06-13_s57gyquyha,null,<p>How well does the combination of Predniptyline and Clindarmin work?</p>,NA,html-slider-response,90,1751,0.0-2.0-4.14,C-,AB+,FALSE,TRUE,People who took Alpraxicam were not cured,People who took Predniptyline and Clindarmin were cured,How well does Clindarmin work?,How well does Alpraxicam work?,How well does the combination of Predniptyline and Clindarmin work?,How well does Predniptyline work?,17,3,1,4,2,null,q3
data_2019-09-03-13-06-13_s57gyquyha,null,<p>How well does Predniptyline work?</p>,NA,html-slider-response,91,1763,0.0-2.0-5.14,C-,AB+,FALSE,TRUE,People who took Alpraxicam were not cured,People who took Predniptyline and Clindarmin were cured,How well does Clindarmin work?,How well does Alpraxicam work?,How well does the combination of Predniptyline and Clindarmin work?,How well does Predniptyline work?,17,3,1,4,2,null,q4
data_2019-09-03-13-06-13_s57gyquyha,null,+,null,html-keyboard-response,92,1767,0.0-2.0-0.15,NA,NA,NA,NA,NA,NA,NA,NA,NA,NA,NA,NA,NA,NA,NA,NA,NA
data_2019-09-03-13-06-13_s57gyquyha,null,<p>People who took Melonax were not cured</p><p>People who took Melonax and Alprarall were not cured</p>,null,html-keyboard-response,93,1774,0.0-2.0-1.15,A-,AB-,FALSE,FALSE,People who took Melonax were not cured,People who took Melonax and Alprarall were not cured,How well does Alprarall work?,How well does Melonax work?,How well does the combination of Melonax and Alprarall work?,null,4,2,1,3,4,NA,NA
data_2019-09-03-13-06-13_s57gyquyha,null,<p>How well does Alprarall work?</p>,NA,html-slider-response,94,1782,0.0-2.0-2.15,A-,AB-,FALSE,FALSE,People who took Melonax were not cured,People who took Melonax and Alprarall were not cured,How well does Alprarall work?,How well does Melonax work?,How well does the combination of Melonax and Alprarall work?,null,4,2,1,3,4,null,q1
data_2019-09-03-13-06-13_s57gyquyha,null,<p>How well does Melonax work?</p>,NA,html-slider-response,95,1797,0.0-2.0-3.15,A-,AB-,FALSE,FALSE,People who took Melonax were not cured,People who took Melonax and Alprarall were not cured,How well does Alprarall work?,How well does Melonax work?,How well does the combination of Melonax and Alprarall work?,null,4,2,1,3,4,null,q2
data_2019-09-03-13-06-13_s57gyquyha,null,<p>How well does the combination of Melonax and Alprarall work?</p>,NA,html-slider-response,96,1802,0.0-2.0-4.15,A-,AB-,FALSE,FALSE,People who took Melonax were not cured,People who took Melonax and Alprarall were not cured,How well does Alprarall work?,How well does Melonax work?,How well does the combination of Melonax and Alprarall work?,null,4,2,1,3,4,null,q3
data_2019-09-03-13-06-13_s57gyquyha,null,<p>null</p>,NA,html-slider-response,97,1814,0.0-2.0-5.15,A-,AB-,FALSE,FALSE,People who took Melonax were not cured,People who took Melonax and Alprarall were not cured,How well does Alprarall work?,How well does Melonax work?,How well does the combination of Melonax and Alprarall work?,null,4,2,1,3,4,null,q4
data_2019-09-03-13-06-13_s57gyquyha,null,+,null,html-keyboard-response,98,1819,0.0-2.0-0.16,NA,NA,NA,NA,NA,NA,NA,NA,NA,NA,NA,NA,NA,NA,NA,NA,NA
data_2019-09-03-13-06-13_s57gyquyha,null,<p>People who took Lisinoxicam and Amitricycline were not cured</p><p>People who took Lisinoxicam were not cured</p>,null,html-keyboard-response,99,1825,0.0-2.0-1.16,AB-,A-,FALSE,FALSE,People who took Lisinoxicam and Amitricycline were not cured,People who took Lisinoxicam were not cured,How well does the combination of Lisinoxicam and Amitricycline work?,How well does Lisinoxicam work?,How well does Amitricycline work?,null,8,3,1,2,4,NA,NA
data_2019-09-03-13-06-13_s57gyquyha,null,<p>How well does the combination of Lisinoxicam and Amitricycline work?</p>,NA,html-slider-response,100,1831,0.0-2.0-2.16,AB-,A-,FALSE,FALSE,People who took Lisinoxicam and Amitricycline were not cured,People who took Lisinoxicam were not cured,How well does the combination of Lisinoxicam and Amitricycline work?,How well does Lisinoxicam work?,How well does Amitricycline work?,null,8,3,1,2,4,null,q1
data_2019-09-03-13-06-13_s57gyquyha,null,<p>How well does Lisinoxicam work?</p>,NA,html-slider-response,101,1846,0.0-2.0-3.16,AB-,A-,FALSE,FALSE,People who took Lisinoxicam and Amitricycline were not cured,People who took Lisinoxicam were not cured,How well does the combination of Lisinoxicam and Amitricycline work?,How well does Lisinoxicam work?,How well does Amitricycline work?,null,8,3,1,2,4,null,q2
data_2019-09-03-13-06-13_s57gyquyha,null,<p>How well does Amitricycline work?</p>,NA,html-slider-response,102,1851,0.0-2.0-4.16,AB-,A-,FALSE,FALSE,People who took Lisinoxicam and Amitricycline were not cured,People who took Lisinoxicam were not cured,How well does the combination of Lisinoxicam and Amitricycline work?,How well does Lisinoxicam work?,How well does Amitricycline work?,null,8,3,1,2,4,null,q3
data_2019-09-03-13-06-13_s57gyquyha,null,<p>null</p>,NA,html-slider-response,103,1862,0.0-2.0-5.16,AB-,A-,FALSE,FALSE,People who took Lisinoxicam and Amitricycline were not cured,People who took Lisinoxicam were not cured,How well does the combination of Lisinoxicam and Amitricycline work?,How well does Lisinoxicam work?,How well does Amitricycline work?,null,8,3,1,2,4,null,q4
data_2019-09-03-13-06-13_s57gyquyha,null,+,null,html-keyboard-response,104,1867,0.0-2.0-0.17,NA,NA,NA,NA,NA,NA,NA,NA,NA,NA,NA,NA,NA,NA,NA,NA,NA
data_2019-09-03-13-06-13_s57gyquyha,null,<p>People who took Atiminophen were not cured</p>,null,html-keyboard-response,105,1875,0.0-2.0-1.17,C-,null,FALSE,null,People who took Atiminophen were not cured,null,null,null,How well does Atiminophen work?,null,14,3,4,1,2,NA,NA
data_2019-09-03-13-06-13_s57gyquyha,null,<p>null</p>,NA,html-slider-response,106,1881,0.0-2.0-2.17,C-,null,FALSE,null,People who took Atiminophen were not cured,null,null,null,How well does Atiminophen work?,null,14,3,4,1,2,null,q1
data_2019-09-03-13-06-13_s57gyquyha,null,<p>null</p>,NA,html-slider-response,107,1897,0.0-2.0-3.17,C-,null,FALSE,null,People who took Atiminophen were not cured,null,null,null,How well does Atiminophen work?,null,14,3,4,1,2,null,q2
data_2019-09-03-13-06-13_s57gyquyha,null,<p>How well does Atiminophen work?</p>,NA,html-slider-response,108,1902,0.0-2.0-4.17,C-,null,FALSE,null,People who took Atiminophen were not cured,null,null,null,How well does Atiminophen work?,null,14,3,4,1,2,null,q3
data_2019-09-03-13-06-13_s57gyquyha,null,<p>null</p>,NA,html-slider-response,109,1914,0.0-2.0-5.17,C-,null,FALSE,null,People who took Atiminophen were not cured,null,null,null,How well does Atiminophen work?,null,14,3,4,1,2,null,q4
data_2019-09-03-13-06-13_s57gyquyha,null,+,null,html-keyboard-response,110,1919,0.0-2.0-0.18,NA,NA,NA,NA,NA,NA,NA,NA,NA,NA,NA,NA,NA,NA,NA,NA,NA
data_2019-09-03-13-06-13_s57gyquyha,null,<p>People who took Hydropentin and Clindaminophen were cured</p>,null,html-keyboard-response,111,1925,0.0-2.0-1.18,AB+,null,TRUE,null,People who took Hydropentin and Clindaminophen were cured,null,How well does Hydropentin work?,How well does the combination of Hydropentin and Clindaminophen work?,How well does Clindaminophen work?,null,11,1,3,2,4,NA,NA
data_2019-09-03-13-06-13_s57gyquyha,null,<p>How well does Hydropentin work?</p>,NA,html-slider-response,112,1931,0.0-2.0-2.18,AB+,null,TRUE,null,People who took Hydropentin and Clindaminophen were cured,null,How well does Hydropentin work?,How well does the combination of Hydropentin and Clindaminophen work?,How well does Clindaminophen work?,null,11,1,3,2,4,null,q1
data_2019-09-03-13-06-13_s57gyquyha,null,<p>How well does the combination of Hydropentin and Clindaminophen work?</p>,NA,html-slider-response,113,1947,0.0-2.0-3.18,AB+,null,TRUE,null,People who took Hydropentin and Clindaminophen were cured,null,How well does Hydropentin work?,How well does the combination of Hydropentin and Clindaminophen work?,How well does Clindaminophen work?,null,11,1,3,2,4,null,q2
data_2019-09-03-13-06-13_s57gyquyha,null,<p>How well does Clindaminophen work?</p>,NA,html-slider-response,114,1952,0.0-2.0-4.18,AB+,null,TRUE,null,People who took Hydropentin and Clindaminophen were cured,null,How well does Hydropentin work?,How well does the combination of Hydropentin and Clindaminophen work?,How well does Clindaminophen work?,null,11,1,3,2,4,null,q3
data_2019-09-03-13-06-13_s57gyquyha,null,<p>null</p>,NA,html-slider-response,115,1963,0.0-2.0-5.18,AB+,null,TRUE,null,People who took Hydropentin and Clindaminophen were cured,null,How well does Hydropentin work?,How well does the combination of Hydropentin and Clindaminophen work?,How well does Clindaminophen work?,null,11,1,3,2,4,null,q4
data_2019-09-03-13-06-13_s57gyquyha,null,+,null,html-keyboard-response,116,1968,0.0-2.0-0.19,NA,NA,NA,NA,NA,NA,NA,NA,NA,NA,NA,NA,NA,NA,NA,NA,NA
data_2019-09-03-13-06-13_s57gyquyha,null,<p>People who took Atorvarall and Lisinoprofen were not cured</p><p>People who took Omedine were not cured</p>,null,html-keyboard-response,117,1973,0.0-2.0-1.19,AB-,C-,FALSE,FALSE,People who took Atorvarall and Lisinoprofen were not cured,People who took Omedine were not cured,null,How well does the combination of Atorvarall and Lisinoprofen work?,How well does Lisinoprofen work?,How well does Atorvarall work?,22,4,3,2,1,NA,NA
data_2019-09-03-13-06-13_s57gyquyha,null,<p>null</p>,NA,html-slider-response,118,1981,0.0-2.0-2.19,AB-,C-,FALSE,FALSE,People who took Atorvarall and Lisinoprofen were not cured,People who took Omedine were not cured,null,How well does the combination of Atorvarall and Lisinoprofen work?,How well does Lisinoprofen work?,How well does Atorvarall work?,22,4,3,2,1,null,q1
data_2019-09-03-13-06-13_s57gyquyha,null,<p>How well does the combination of Atorvarall and Lisinoprofen work?</p>,NA,html-slider-response,119,1998,0.0-2.0-3.19,AB-,C-,FALSE,FALSE,People who took Atorvarall and Lisinoprofen were not cured,People who took Omedine were not cured,null,How well does the combination of Atorvarall and Lisinoprofen work?,How well does Lisinoprofen work?,How well does Atorvarall work?,22,4,3,2,1,null,q2
data_2019-09-03-13-06-13_s57gyquyha,null,<p>How well does Lisinoprofen work?</p>,NA,html-slider-response,120,2003,0.0-2.0-4.19,AB-,C-,FALSE,FALSE,People who took Atorvarall and Lisinoprofen were not cured,People who took Omedine were not cured,null,How well does the combination of Atorvarall and Lisinoprofen work?,How well does Lisinoprofen work?,How well does Atorvarall work?,22,4,3,2,1,null,q3
data_2019-09-03-13-06-13_s57gyquyha,null,<p>How well does Atorvarall work?</p>,NA,html-slider-response,121,2013,0.0-2.0-5.19,AB-,C-,FALSE,FALSE,People who took Atorvarall and Lisinoprofen were not cured,People who took Omedine were not cured,null,How well does the combination of Atorvarall and Lisinoprofen work?,How well does Lisinoprofen work?,How well does Atorvarall work?,22,4,3,2,1,null,q4
data_2019-09-03-13-06-13_s57gyquyha,null,+,null,html-keyboard-response,122,2018,0.0-2.0-0.20,NA,NA,NA,NA,NA,NA,NA,NA,NA,NA,NA,NA,NA,NA,NA,NA,NA
data_2019-09-03-13-06-13_s57gyquyha,null,<p>People who took Amoxipram and Cyclocycline were cured</p><p>People who took Amoxipram were not cured</p>,null,html-keyboard-response,123,2024,0.0-2.0-1.20,AB+,A-,TRUE,FALSE,People who took Amoxipram and Cyclocycline were cured,People who took Amoxipram were not cured,How well does Amoxipram work?,How well does Cyclocycline work?,How well does the combination of Amoxipram and Cyclocycline work?,null,7,1,2,3,4,NA,NA
data_2019-09-03-13-06-13_s57gyquyha,null,<p>How well does Amoxipram work?</p>,NA,html-slider-response,124,2030,0.0-2.0-2.20,AB+,A-,TRUE,FALSE,People who took Amoxipram and Cyclocycline were cured,People who took Amoxipram were not cured,How well does Amoxipram work?,How well does Cyclocycline work?,How well does the combination of Amoxipram and Cyclocycline work?,null,7,1,2,3,4,null,q1
data_2019-09-03-13-06-13_s57gyquyha,null,<p>How well does Cyclocycline work?</p>,NA,html-slider-response,125,2047,0.0-2.0-3.20,AB+,A-,TRUE,FALSE,People who took Amoxipram and Cyclocycline were cured,People who took Amoxipram were not cured,How well does Amoxipram work?,How well does Cyclocycline work?,How well does the combination of Amoxipram and Cyclocycline work?,null,7,1,2,3,4,null,q2
data_2019-09-03-13-06-13_s57gyquyha,null,<p>How well does the combination of Amoxipram and Cyclocycline work?</p>,NA,html-slider-response,126,2052,0.0-2.0-4.20,AB+,A-,TRUE,FALSE,People who took Amoxipram and Cyclocycline were cured,People who took Amoxipram were not cured,How well does Amoxipram work?,How well does Cyclocycline work?,How well does the combination of Amoxipram and Cyclocycline work?,null,7,1,2,3,4,null,q3
data_2019-09-03-13-06-13_s57gyquyha,null,<p>null</p>,NA,html-slider-response,127,2063,0.0-2.0-5.20,AB+,A-,TRUE,FALSE,People who took Amoxipram and Cyclocycline were cured,People who took Amoxipram were not cured,How well does Amoxipram work?,How well does Cyclocycline work?,How well does the combination of Amoxipram and Cyclocycline work?,null,7,1,2,3,4,null,q4
data_2019-09-03-13-06-13_s57gyquyha,null,+,null,html-keyboard-response,128,2068,0.0-2.0-0.21,NA,NA,NA,NA,NA,NA,NA,NA,NA,NA,NA,NA,NA,NA,NA,NA,NA
data_2019-09-03-13-06-13_s57gyquyha,null,<p>People who took Ibuxicam and Lexadone were cured</p><p>People who took Addecodone were not cured</p>,null,html-keyboard-response,129,2075,0.0-2.0-1.21,AB+,C-,TRUE,FALSE,People who took Ibuxicam and Lexadone were cured,People who took Addecodone were not cured,How well does Ibuxicam work?,How well does Lexadone work?,null,How well does the combination of Ibuxicam and Lexadone work?,21,1,2,4,3,NA,NA
data_2019-09-03-13-06-13_s57gyquyha,null,<p>How well does Ibuxicam work?</p>,NA,html-slider-response,130,2082,0.0-2.0-2.21,AB+,C-,TRUE,FALSE,People who took Ibuxicam and Lexadone were cured,People who took Addecodone were not cured,How well does Ibuxicam work?,How well does Lexadone work?,null,How well does the combination of Ibuxicam and Lexadone work?,21,1,2,4,3,null,q1
data_2019-09-03-13-06-13_s57gyquyha,null,<p>How well does Lexadone work?</p>,NA,html-slider-response,131,2097,0.0-2.0-3.21,AB+,C-,TRUE,FALSE,People who took Ibuxicam and Lexadone were cured,People who took Addecodone were not cured,How well does Ibuxicam work?,How well does Lexadone work?,null,How well does the combination of Ibuxicam and Lexadone work?,21,1,2,4,3,null,q2
data_2019-09-03-13-06-13_s57gyquyha,null,<p>null</p>,NA,html-slider-response,132,2102,0.0-2.0-4.21,AB+,C-,TRUE,FALSE,People who took Ibuxicam and Lexadone were cured,People who took Addecodone were not cured,How well does Ibuxicam work?,How well does Lexadone work?,null,How well does the combination of Ibuxicam and Lexadone work?,21,1,2,4,3,null,q3
data_2019-09-03-13-06-13_s57gyquyha,null,<p>How well does the combination of Ibuxicam and Lexadone work?</p>,NA,html-slider-response,133,2113,0.0-2.0-5.21,AB+,C-,TRUE,FALSE,People who took Ibuxicam and Lexadone were cured,People who took Addecodone were not cured,How well does Ibuxicam work?,How well does Lexadone work?,null,How well does the combination of Ibuxicam and Lexadone work?,21,1,2,4,3,null,q4
