file_id,rt,stimulus,key_press,trial_type,trial_index,time_elapsed,internal_node_id,premise_one,premise_two,question_type,overall_premise,p1_outcome,p2_outcome,p1_sentence,p2_sentence,q1,q2,q3,q4,trial_number,q1_type,q2_type,q3_type,q4_type,response,question_order
data_2019-09-03-14-55-13_mfiv6k4jb5,17018.000000000004,Welcome to the experiment. Press any key to begin.,32,html-keyboard-response,0,17022,0.0-0.0,NA,NA,NA,NA,NA,NA,NA,NA,NA,NA,NA,NA,NA,NA,NA,NA,NA,NA,NA
data_2019-09-03-14-55-13_mfiv6k4jb5,1161,"<p>In this task, you will read the outcomes of drug trials and then judge drug efficacies</p><p>Press any key to begin.</p>",32,html-keyboard-response,1,18184,0.0-1.0,NA,NA,NA,NA,NA,NA,NA,NA,NA,NA,NA,NA,NA,NA,NA,NA,NA,NA,NA
data_2019-09-03-14-55-13_mfiv6k4jb5,null,+,null,html-keyboard-response,2,19688,0.0-2.0-0.0,NA,NA,NA,NA,NA,NA,NA,NA,NA,NA,NA,NA,NA,NA,NA,NA,NA,NA,NA
data_2019-09-03-14-55-13_mfiv6k4jb5,null,<p>People who took Viathiazide were cured</p><p>People who took Viathiazide and Loratafloxacin were cured</p>,null,html-keyboard-response,3,24691,0.0-2.0-1.0,A+,AB+,experimental,A+AB+,TRUE,TRUE,People who took Viathiazide were cured,People who took Viathiazide and Loratafloxacin were cured,How well does the combination of Viathiazide and Loratafloxacin work?,How well does Loratafloxacin work?,null,How well does Viathiazide work?,1,3,2,4,1,NA,NA
data_2019-09-03-14-55-13_mfiv6k4jb5,3637,<p>How well does the combination of Viathiazide and Loratafloxacin work?</p>,NA,html-slider-response,4,28331,0.0-2.0-2.0,A+,AB+,experimental,A+AB+,TRUE,TRUE,People who took Viathiazide were cured,People who took Viathiazide and Loratafloxacin were cured,How well does the combination of Viathiazide and Loratafloxacin work?,How well does Loratafloxacin work?,null,How well does Viathiazide work?,1,3,2,4,1,97,q1
data_2019-09-03-14-55-13_mfiv6k4jb5,4624.999999999996,<p>How well does Loratafloxacin work?</p>,NA,html-slider-response,5,32958,0.0-2.0-3.0,A+,AB+,experimental,A+AB+,TRUE,TRUE,People who took Viathiazide were cured,People who took Viathiazide and Loratafloxacin were cured,How well does the combination of Viathiazide and Loratafloxacin work?,How well does Loratafloxacin work?,null,How well does Viathiazide work?,1,3,2,4,1,52,q2
data_2019-09-03-14-55-13_mfiv6k4jb5,null,<p>null</p>,NA,html-slider-response,6,32962,0.0-2.0-4.0,A+,AB+,experimental,A+AB+,TRUE,TRUE,People who took Viathiazide were cured,People who took Viathiazide and Loratafloxacin were cured,How well does the combination of Viathiazide and Loratafloxacin work?,How well does Loratafloxacin work?,null,How well does Viathiazide work?,1,3,2,4,1,null,q3
data_2019-09-03-14-55-13_mfiv6k4jb5,3165,<p>How well does Viathiazide work?</p>,NA,html-slider-response,7,36128,0.0-2.0-5.0,A+,AB+,experimental,A+AB+,TRUE,TRUE,People who took Viathiazide were cured,People who took Viathiazide and Loratafloxacin were cured,How well does the combination of Viathiazide and Loratafloxacin work?,How well does Loratafloxacin work?,null,How well does Viathiazide work?,1,3,2,4,1,99,q4
data_2019-09-03-14-55-13_mfiv6k4jb5,null,+,null,html-keyboard-response,8,36629,0.0-2.0-0.1,NA,NA,NA,NA,NA,NA,NA,NA,NA,NA,NA,NA,NA,NA,NA,NA,NA,NA,NA
data_2019-09-03-14-55-13_mfiv6k4jb5,null,<p>People who took Clindadine and Lorataptyline were not cured</p><p>People who took Oxydol were not cured</p>,null,html-keyboard-response,9,41632,0.0-2.0-1.1,AB-,C-,control,C-AB-,FALSE,FALSE,People who took Clindadine and Lorataptyline were not cured,People who took Oxydol were not cured,null,How well does the combination of Clindadine and Lorataptyline work?,How well does Lorataptyline work?,How well does Clindadine work?,22,4,3,2,1,NA,NA
data_2019-09-03-14-55-13_mfiv6k4jb5,null,<p>null</p>,NA,html-slider-response,10,41636,0.0-2.0-2.1,AB-,C-,control,C-AB-,FALSE,FALSE,People who took Clindadine and Lorataptyline were not cured,People who took Oxydol were not cured,null,How well does the combination of Clindadine and Lorataptyline work?,How well does Lorataptyline work?,How well does Clindadine work?,22,4,3,2,1,null,q1
data_2019-09-03-14-55-13_mfiv6k4jb5,5348,<p>How well does the combination of Clindadine and Lorataptyline work?</p>,NA,html-slider-response,11,46985,0.0-2.0-3.1,AB-,C-,control,C-AB-,FALSE,FALSE,People who took Clindadine and Lorataptyline were not cured,People who took Oxydol were not cured,null,How well does the combination of Clindadine and Lorataptyline work?,How well does Lorataptyline work?,How well does Clindadine work?,22,4,3,2,1,-95,q2
data_2019-09-03-14-55-13_mfiv6k4jb5,3166.9999999999927,<p>How well does Lorataptyline work?</p>,NA,html-slider-response,12,50152,0.0-2.0-4.1,AB-,C-,control,C-AB-,FALSE,FALSE,People who took Clindadine and Lorataptyline were not cured,People who took Oxydol were not cured,null,How well does the combination of Clindadine and Lorataptyline work?,How well does Lorataptyline work?,How well does Clindadine work?,22,4,3,2,1,-92,q3
data_2019-09-03-14-55-13_mfiv6k4jb5,2703,<p>How well does Clindadine work?</p>,NA,html-slider-response,13,52856,0.0-2.0-5.1,AB-,C-,control,C-AB-,FALSE,FALSE,People who took Clindadine and Lorataptyline were not cured,People who took Oxydol were not cured,null,How well does the combination of Clindadine and Lorataptyline work?,How well does Lorataptyline work?,How well does Clindadine work?,22,4,3,2,1,-92,q4
data_2019-09-03-14-55-13_mfiv6k4jb5,null,+,null,html-keyboard-response,14,53358,0.0-2.0-0.2,NA,NA,NA,NA,NA,NA,NA,NA,NA,NA,NA,NA,NA,NA,NA,NA,NA,NA,NA
data_2019-09-03-14-55-13_mfiv6k4jb5,null,<p>People who took Tramafloxacin were cured</p>,null,html-keyboard-response,15,58360,0.0-2.0-1.2,A+,null,control,A+,TRUE,null,People who took Tramafloxacin were cured,null,null,null,How well does Tramafloxacin work?,null,9,2,4,1,3,NA,NA
data_2019-09-03-14-55-13_mfiv6k4jb5,null,<p>null</p>,NA,html-slider-response,16,58365,0.0-2.0-2.2,A+,null,control,A+,TRUE,null,People who took Tramafloxacin were cured,null,null,null,How well does Tramafloxacin work?,null,9,2,4,1,3,null,q1
data_2019-09-03-14-55-13_mfiv6k4jb5,null,<p>null</p>,NA,html-slider-response,17,58368,0.0-2.0-3.2,A+,null,control,A+,TRUE,null,People who took Tramafloxacin were cured,null,null,null,How well does Tramafloxacin work?,null,9,2,4,1,3,null,q2
data_2019-09-03-14-55-13_mfiv6k4jb5,3305,<p>How well does Tramafloxacin work?</p>,NA,html-slider-response,18,61674,0.0-2.0-4.2,A+,null,control,A+,TRUE,null,People who took Tramafloxacin were cured,null,null,null,How well does Tramafloxacin work?,null,9,2,4,1,3,84,q3
data_2019-09-03-14-55-13_mfiv6k4jb5,null,<p>null</p>,NA,html-slider-response,19,61677,0.0-2.0-5.2,A+,null,control,A+,TRUE,null,People who took Tramafloxacin were cured,null,null,null,How well does Tramafloxacin work?,null,9,2,4,1,3,null,q4
data_2019-09-03-14-55-13_mfiv6k4jb5,null,+,null,html-keyboard-response,20,62178,0.0-2.0-0.3,NA,NA,NA,NA,NA,NA,NA,NA,NA,NA,NA,NA,NA,NA,NA,NA,NA,NA,NA
data_2019-09-03-14-55-13_mfiv6k4jb5,null,<p>People who took Clindapril were cured</p>,null,html-keyboard-response,21,67180,0.0-2.0-1.3,C+,null,control,C+,TRUE,null,People who took Clindapril were cured,null,null,null,null,How well does Clindapril work?,13,3,4,2,1,NA,NA
data_2019-09-03-14-55-13_mfiv6k4jb5,null,<p>null</p>,NA,html-slider-response,22,67185,0.0-2.0-2.3,C+,null,control,C+,TRUE,null,People who took Clindapril were cured,null,null,null,null,How well does Clindapril work?,13,3,4,2,1,null,q1
data_2019-09-03-14-55-13_mfiv6k4jb5,null,<p>null</p>,NA,html-slider-response,23,67188,0.0-2.0-3.3,C+,null,control,C+,TRUE,null,People who took Clindapril were cured,null,null,null,null,How well does Clindapril work?,13,3,4,2,1,null,q2
data_2019-09-03-14-55-13_mfiv6k4jb5,null,<p>null</p>,NA,html-slider-response,24,67207,0.0-2.0-4.3,C+,null,control,C+,TRUE,null,People who took Clindapril were cured,null,null,null,null,How well does Clindapril work?,13,3,4,2,1,null,q3
data_2019-09-03-14-55-13_mfiv6k4jb5,2008.0000000000146,<p>How well does Clindapril work?</p>,NA,html-slider-response,25,69216,0.0-2.0-5.3,C+,null,control,C+,TRUE,null,People who took Clindapril were cured,null,null,null,null,How well does Clindapril work?,13,3,4,2,1,100,q4
data_2019-09-03-14-55-13_mfiv6k4jb5,null,+,null,html-keyboard-response,26,69717,0.0-2.0-0.4,NA,NA,NA,NA,NA,NA,NA,NA,NA,NA,NA,NA,NA,NA,NA,NA,NA,NA,NA
data_2019-09-03-14-55-13_mfiv6k4jb5,null,<p>People who took Melosone and Atorvapril were cured</p><p>People who took Melosone were cured</p>,null,html-keyboard-response,27,74718,0.0-2.0-1.4,AB+,A+,experimental,A+AB+,TRUE,TRUE,People who took Melosone and Atorvapril were cured,People who took Melosone were cured,How well does Atorvapril work?,How well does Melosone work?,How well does the combination of Melosone and Atorvapril work?,null,5,2,1,3,4,NA,NA
data_2019-09-03-14-55-13_mfiv6k4jb5,3811,<p>How well does Atorvapril work?</p>,NA,html-slider-response,28,78530,0.0-2.0-2.4,AB+,A+,experimental,A+AB+,TRUE,TRUE,People who took Melosone and Atorvapril were cured,People who took Melosone were cured,How well does Atorvapril work?,How well does Melosone work?,How well does the combination of Melosone and Atorvapril work?,null,5,2,1,3,4,0,q1
data_2019-09-03-14-55-13_mfiv6k4jb5,2490,<p>How well does Melosone work?</p>,NA,html-slider-response,29,81020,0.0-2.0-3.4,AB+,A+,experimental,A+AB+,TRUE,TRUE,People who took Melosone and Atorvapril were cured,People who took Melosone were cured,How well does Atorvapril work?,How well does Melosone work?,How well does the combination of Melosone and Atorvapril work?,null,5,2,1,3,4,98,q2
data_2019-09-03-14-55-13_mfiv6k4jb5,2961,<p>How well does the combination of Melosone and Atorvapril work?</p>,NA,html-slider-response,30,83982,0.0-2.0-4.4,AB+,A+,experimental,A+AB+,TRUE,TRUE,People who took Melosone and Atorvapril were cured,People who took Melosone were cured,How well does Atorvapril work?,How well does Melosone work?,How well does the combination of Melosone and Atorvapril work?,null,5,2,1,3,4,96,q3
data_2019-09-03-14-55-13_mfiv6k4jb5,null,<p>null</p>,NA,html-slider-response,31,83985,0.0-2.0-5.4,AB+,A+,experimental,A+AB+,TRUE,TRUE,People who took Melosone and Atorvapril were cured,People who took Melosone were cured,How well does Atorvapril work?,How well does Melosone work?,How well does the combination of Melosone and Atorvapril work?,null,5,2,1,3,4,null,q4
data_2019-09-03-14-55-13_mfiv6k4jb5,null,+,null,html-keyboard-response,32,84486,0.0-2.0-0.5,NA,NA,NA,NA,NA,NA,NA,NA,NA,NA,NA,NA,NA,NA,NA,NA,NA,NA,NA
data_2019-09-03-14-55-13_mfiv6k4jb5,null,<p>People who took Losaprofen and Melobalta were not cured</p>,null,html-keyboard-response,33,89488,0.0-2.0-1.5,AB-,null,control,AB-,FALSE,null,People who took Losaprofen and Melobalta were not cured,null,How well does the combination of Losaprofen and Melobalta work?,How well does Losaprofen work?,null,How well does Melobalta work?,12,3,1,4,2,NA,NA
data_2019-09-03-14-55-13_mfiv6k4jb5,3687,<p>How well does the combination of Losaprofen and Melobalta work?</p>,NA,html-slider-response,34,93177,0.0-2.0-2.5,AB-,null,control,AB-,FALSE,null,People who took Losaprofen and Melobalta were not cured,null,How well does the combination of Losaprofen and Melobalta work?,How well does Losaprofen work?,null,How well does Melobalta work?,12,3,1,4,2,-94,q1
data_2019-09-03-14-55-13_mfiv6k4jb5,7472,<p>How well does Losaprofen work?</p>,NA,html-slider-response,35,100650,0.0-2.0-3.5,AB-,null,control,AB-,FALSE,null,People who took Losaprofen and Melobalta were not cured,null,How well does the combination of Losaprofen and Melobalta work?,How well does Losaprofen work?,null,How well does Melobalta work?,12,3,1,4,2,-59,q2
data_2019-09-03-14-55-13_mfiv6k4jb5,null,<p>null</p>,NA,html-slider-response,36,100653,0.0-2.0-4.5,AB-,null,control,AB-,FALSE,null,People who took Losaprofen and Melobalta were not cured,null,How well does the combination of Losaprofen and Melobalta work?,How well does Losaprofen work?,null,How well does Melobalta work?,12,3,1,4,2,null,q3
data_2019-09-03-14-55-13_mfiv6k4jb5,9590.000000000015,<p>How well does Melobalta work?</p>,NA,html-slider-response,37,110244,0.0-2.0-5.5,AB-,null,control,AB-,FALSE,null,People who took Losaprofen and Melobalta were not cured,null,How well does the combination of Losaprofen and Melobalta work?,How well does Losaprofen work?,null,How well does Melobalta work?,12,3,1,4,2,-46,q4
data_2019-09-03-14-55-13_mfiv6k4jb5,null,+,null,html-keyboard-response,38,110745,0.0-2.0-0.6,NA,NA,NA,NA,NA,NA,NA,NA,NA,NA,NA,NA,NA,NA,NA,NA,NA,NA,NA
data_2019-09-03-14-55-13_mfiv6k4jb5,null,<p>People who took Zominophen were not cured</p>,null,html-keyboard-response,39,115748,0.0-2.0-1.6,C-,null,control,C-,FALSE,null,People who took Zominophen were not cured,null,How well does Zominophen work?,null,null,null,14,1,3,4,2,NA,NA
data_2019-09-03-14-55-13_mfiv6k4jb5,2755,<p>How well does Zominophen work?</p>,NA,html-slider-response,40,118508,0.0-2.0-2.6,C-,null,control,C-,FALSE,null,People who took Zominophen were not cured,null,How well does Zominophen work?,null,null,null,14,1,3,4,2,-78,q1
data_2019-09-03-14-55-13_mfiv6k4jb5,null,<p>null</p>,NA,html-slider-response,41,118511,0.0-2.0-3.6,C-,null,control,C-,FALSE,null,People who took Zominophen were not cured,null,How well does Zominophen work?,null,null,null,14,1,3,4,2,null,q2
data_2019-09-03-14-55-13_mfiv6k4jb5,null,<p>null</p>,NA,html-slider-response,42,118524,0.0-2.0-4.6,C-,null,control,C-,FALSE,null,People who took Zominophen were not cured,null,How well does Zominophen work?,null,null,null,14,1,3,4,2,null,q3
data_2019-09-03-14-55-13_mfiv6k4jb5,null,<p>null</p>,NA,html-slider-response,43,118527,0.0-2.0-5.6,C-,null,control,C-,FALSE,null,People who took Zominophen were not cured,null,How well does Zominophen work?,null,null,null,14,1,3,4,2,null,q4
data_2019-09-03-14-55-13_mfiv6k4jb5,null,+,null,html-keyboard-response,44,119029,0.0-2.0-0.7,NA,NA,NA,NA,NA,NA,NA,NA,NA,NA,NA,NA,NA,NA,NA,NA,NA,NA,NA
data_2019-09-03-14-55-13_mfiv6k4jb5,null,<p>People who took Viadol and Alpradone were not cured</p><p>People who took Viadol were not cured</p>,null,html-keyboard-response,45,124031,0.0-2.0-1.7,AB-,A-,experimental,A-AB-,FALSE,FALSE,People who took Viadol and Alpradone were not cured,People who took Viadol were not cured,null,How well does the combination of Viadol and Alpradone work?,How well does Viadol work?,How well does Alpradone work?,8,4,3,1,2,NA,NA
data_2019-09-03-14-55-13_mfiv6k4jb5,null,<p>null</p>,NA,html-slider-response,46,124036,0.0-2.0-2.7,AB-,A-,experimental,A-AB-,FALSE,FALSE,People who took Viadol and Alpradone were not cured,People who took Viadol were not cured,null,How well does the combination of Viadol and Alpradone work?,How well does Viadol work?,How well does Alpradone work?,8,4,3,1,2,null,q1
data_2019-09-03-14-55-13_mfiv6k4jb5,3425,<p>How well does the combination of Viadol and Alpradone work?</p>,NA,html-slider-response,47,127463,0.0-2.0-3.7,AB-,A-,experimental,A-AB-,FALSE,FALSE,People who took Viadol and Alpradone were not cured,People who took Viadol were not cured,null,How well does the combination of Viadol and Alpradone work?,How well does Viadol work?,How well does Alpradone work?,8,4,3,1,2,-65,q2
data_2019-09-03-14-55-13_mfiv6k4jb5,2418,<p>How well does Viadol work?</p>,NA,html-slider-response,48,129881,0.0-2.0-4.7,AB-,A-,experimental,A-AB-,FALSE,FALSE,People who took Viadol and Alpradone were not cured,People who took Viadol were not cured,null,How well does the combination of Viadol and Alpradone work?,How well does Viadol work?,How well does Alpradone work?,8,4,3,1,2,-51,q3
data_2019-09-03-14-55-13_mfiv6k4jb5,2012,<p>How well does Alpradone work?</p>,NA,html-slider-response,49,131893,0.0-2.0-5.7,AB-,A-,experimental,A-AB-,FALSE,FALSE,People who took Viadol and Alpradone were not cured,People who took Viadol were not cured,null,How well does the combination of Viadol and Alpradone work?,How well does Viadol work?,How well does Alpradone work?,8,4,3,1,2,-52,q4
data_2019-09-03-14-55-13_mfiv6k4jb5,null,+,null,html-keyboard-response,50,132395,0.0-2.0-0.8,NA,NA,NA,NA,NA,NA,NA,NA,NA,NA,NA,NA,NA,NA,NA,NA,NA,NA,NA
data_2019-09-03-14-55-13_mfiv6k4jb5,null,<p>People who took Zocillin and Tramadone were cured</p><p>People who took Loratasone were not cured</p>,null,html-keyboard-response,51,137396,0.0-2.0-1.8,AB+,C-,control,C-AB+,TRUE,FALSE,People who took Zocillin and Tramadone were cured,People who took Loratasone were not cured,How well does Zocillin work?,How well does the combination of Zocillin and Tramadone work?,null,How well does Tramadone work?,21,1,3,4,2,NA,NA
data_2019-09-03-14-55-13_mfiv6k4jb5,3512.999999999971,<p>How well does Zocillin work?</p>,NA,html-slider-response,52,140910,0.0-2.0-2.8,AB+,C-,control,C-AB+,TRUE,FALSE,People who took Zocillin and Tramadone were cured,People who took Loratasone were not cured,How well does Zocillin work?,How well does the combination of Zocillin and Tramadone work?,null,How well does Tramadone work?,21,1,3,4,2,47,q1
data_2019-09-03-14-55-13_mfiv6k4jb5,2693,<p>How well does the combination of Zocillin and Tramadone work?</p>,NA,html-slider-response,53,143604,0.0-2.0-3.8,AB+,C-,control,C-AB+,TRUE,FALSE,People who took Zocillin and Tramadone were cured,People who took Loratasone were not cured,How well does Zocillin work?,How well does the combination of Zocillin and Tramadone work?,null,How well does Tramadone work?,21,1,3,4,2,96,q2
data_2019-09-03-14-55-13_mfiv6k4jb5,null,<p>null</p>,NA,html-slider-response,54,143607,0.0-2.0-4.8,AB+,C-,control,C-AB+,TRUE,FALSE,People who took Zocillin and Tramadone were cured,People who took Loratasone were not cured,How well does Zocillin work?,How well does the combination of Zocillin and Tramadone work?,null,How well does Tramadone work?,21,1,3,4,2,null,q3
data_2019-09-03-14-55-13_mfiv6k4jb5,7017,<p>How well does Tramadone work?</p>,NA,html-slider-response,55,150624,0.0-2.0-5.8,AB+,C-,control,C-AB+,TRUE,FALSE,People who took Zocillin and Tramadone were cured,People who took Loratasone were not cured,How well does Zocillin work?,How well does the combination of Zocillin and Tramadone work?,null,How well does Tramadone work?,21,1,3,4,2,-52,q4
data_2019-09-03-14-55-13_mfiv6k4jb5,null,+,null,html-keyboard-response,56,151125,0.0-2.0-0.9,NA,NA,NA,NA,NA,NA,NA,NA,NA,NA,NA,NA,NA,NA,NA,NA,NA,NA,NA
data_2019-09-03-14-55-13_mfiv6k4jb5,null,<p>People who took Ciproloft were cured</p><p>People who took Ciprobenzaprine and Clonastatin were not cured</p>,null,html-keyboard-response,57,156125,0.0-2.0-1.9,C+,AB-,control,C+AB-,TRUE,FALSE,People who took Ciproloft were cured,People who took Ciprobenzaprine and Clonastatin were not cured,How well does Ciprobenzaprine work?,How well does Clonastatin work?,How well does Ciproloft work?,How well does the combination of Ciprobenzaprine and Clonastatin work?,16,2,3,1,4,NA,NA
data_2019-09-03-14-55-13_mfiv6k4jb5,3732,<p>How well does Ciprobenzaprine work?</p>,NA,html-slider-response,58,159858,0.0-2.0-2.9,C+,AB-,control,C+AB-,TRUE,FALSE,People who took Ciproloft were cured,People who took Ciprobenzaprine and Clonastatin were not cured,How well does Ciprobenzaprine work?,How well does Clonastatin work?,How well does Ciproloft work?,How well does the combination of Ciprobenzaprine and Clonastatin work?,16,2,3,1,4,0,q1
data_2019-09-03-14-55-13_mfiv6k4jb5,1614,<p>How well does Clonastatin work?</p>,NA,html-slider-response,59,161473,0.0-2.0-3.9,C+,AB-,control,C+AB-,TRUE,FALSE,People who took Ciproloft were cured,People who took Ciprobenzaprine and Clonastatin were not cured,How well does Ciprobenzaprine work?,How well does Clonastatin work?,How well does Ciproloft work?,How well does the combination of Ciprobenzaprine and Clonastatin work?,16,2,3,1,4,0,q2
data_2019-09-03-14-55-13_mfiv6k4jb5,1038,<p>How well does Ciproloft work?</p>,NA,html-slider-response,60,162511,0.0-2.0-4.9,C+,AB-,control,C+AB-,TRUE,FALSE,People who took Ciproloft were cured,People who took Ciprobenzaprine and Clonastatin were not cured,How well does Ciprobenzaprine work?,How well does Clonastatin work?,How well does Ciproloft work?,How well does the combination of Ciprobenzaprine and Clonastatin work?,16,2,3,1,4,0,q3
data_2019-09-03-14-55-13_mfiv6k4jb5,1127,<p>How well does the combination of Ciprobenzaprine and Clonastatin work?</p>,NA,html-slider-response,61,163639,0.0-2.0-5.9,C+,AB-,control,C+AB-,TRUE,FALSE,People who took Ciproloft were cured,People who took Ciprobenzaprine and Clonastatin were not cured,How well does Ciprobenzaprine work?,How well does Clonastatin work?,How well does Ciproloft work?,How well does the combination of Ciprobenzaprine and Clonastatin work?,16,2,3,1,4,0,q4
data_2019-09-03-14-55-13_mfiv6k4jb5,null,+,null,html-keyboard-response,62,164139,0.0-2.0-0.10,NA,NA,NA,NA,NA,NA,NA,NA,NA,NA,NA,NA,NA,NA,NA,NA,NA,NA,NA
data_2019-09-03-14-55-13_mfiv6k4jb5,null,<p>People who took Acetaxicam were not cured</p><p>People who took Clonamycin and Wellbunax were cured</p>,null,html-keyboard-response,63,169141,0.0-2.0-1.10,C-,AB+,control,C-AB+,FALSE,TRUE,People who took Acetaxicam were not cured,People who took Clonamycin and Wellbunax were cured,How well does Wellbunax work?,How well does Acetaxicam work?,How well does Clonamycin work?,How well does the combination of Clonamycin and Wellbunax work?,17,3,1,2,4,NA,NA
data_2019-09-03-14-55-13_mfiv6k4jb5,2703.999999999971,<p>How well does Wellbunax work?</p>,NA,html-slider-response,64,171846,0.0-2.0-2.10,C-,AB+,control,C-AB+,FALSE,TRUE,People who took Acetaxicam were not cured,People who took Clonamycin and Wellbunax were cured,How well does Wellbunax work?,How well does Acetaxicam work?,How well does Clonamycin work?,How well does the combination of Clonamycin and Wellbunax work?,17,3,1,2,4,42,q1
data_2019-09-03-14-55-13_mfiv6k4jb5,2538,<p>How well does Acetaxicam work?</p>,NA,html-slider-response,65,174385,0.0-2.0-3.10,C-,AB+,control,C-AB+,FALSE,TRUE,People who took Acetaxicam were not cured,People who took Clonamycin and Wellbunax were cured,How well does Wellbunax work?,How well does Acetaxicam work?,How well does Clonamycin work?,How well does the combination of Clonamycin and Wellbunax work?,17,3,1,2,4,-50,q2
data_2019-09-03-14-55-13_mfiv6k4jb5,2453.000000000029,<p>How well does Clonamycin work?</p>,NA,html-slider-response,66,176840,0.0-2.0-4.10,C-,AB+,control,C-AB+,FALSE,TRUE,People who took Acetaxicam were not cured,People who took Clonamycin and Wellbunax were cured,How well does Wellbunax work?,How well does Acetaxicam work?,How well does Clonamycin work?,How well does the combination of Clonamycin and Wellbunax work?,17,3,1,2,4,47,q3
data_2019-09-03-14-55-13_mfiv6k4jb5,3553,<p>How well does the combination of Clonamycin and Wellbunax work?</p>,NA,html-slider-response,67,180393,0.0-2.0-5.10,C-,AB+,control,C-AB+,FALSE,TRUE,People who took Acetaxicam were not cured,People who took Clonamycin and Wellbunax were cured,How well does Wellbunax work?,How well does Acetaxicam work?,How well does Clonamycin work?,How well does the combination of Clonamycin and Wellbunax work?,17,3,1,2,4,100,q4
data_2019-09-03-14-55-13_mfiv6k4jb5,null,+,null,html-keyboard-response,68,180895,0.0-2.0-0.11,NA,NA,NA,NA,NA,NA,NA,NA,NA,NA,NA,NA,NA,NA,NA,NA,NA,NA,NA
data_2019-09-03-14-55-13_mfiv6k4jb5,null,<p>People who took Prednicillin were cured</p><p>People who took Prednicillin and Metfoprazole were not cured</p>,null,html-keyboard-response,69,185897,0.0-2.0-1.11,A+,AB-,experimental,A+AB-,TRUE,FALSE,People who took Prednicillin were cured,People who took Prednicillin and Metfoprazole were not cured,How well does Metfoprazole work?,null,How well does the combination of Prednicillin and Metfoprazole work?,How well does Prednicillin work?,2,2,4,3,1,NA,NA
data_2019-09-03-14-55-13_mfiv6k4jb5,3560,<p>How well does Metfoprazole work?</p>,NA,html-slider-response,70,189459,0.0-2.0-2.11,A+,AB-,experimental,A+AB-,TRUE,FALSE,People who took Prednicillin were cured,People who took Prednicillin and Metfoprazole were not cured,How well does Metfoprazole work?,null,How well does the combination of Prednicillin and Metfoprazole work?,How well does Prednicillin work?,2,2,4,3,1,-33,q1
data_2019-09-03-14-55-13_mfiv6k4jb5,null,<p>null</p>,NA,html-slider-response,71,189463,0.0-2.0-3.11,A+,AB-,experimental,A+AB-,TRUE,FALSE,People who took Prednicillin were cured,People who took Prednicillin and Metfoprazole were not cured,How well does Metfoprazole work?,null,How well does the combination of Prednicillin and Metfoprazole work?,How well does Prednicillin work?,2,2,4,3,1,null,q2
data_2019-09-03-14-55-13_mfiv6k4jb5,2085,<p>How well does the combination of Prednicillin and Metfoprazole work?</p>,NA,html-slider-response,72,191548,0.0-2.0-4.11,A+,AB-,experimental,A+AB-,TRUE,FALSE,People who took Prednicillin were cured,People who took Prednicillin and Metfoprazole were not cured,How well does Metfoprazole work?,null,How well does the combination of Prednicillin and Metfoprazole work?,How well does Prednicillin work?,2,2,4,3,1,-40,q3
data_2019-09-03-14-55-13_mfiv6k4jb5,2807,<p>How well does Prednicillin work?</p>,NA,html-slider-response,73,194356,0.0-2.0-5.11,A+,AB-,experimental,A+AB-,TRUE,FALSE,People who took Prednicillin were cured,People who took Prednicillin and Metfoprazole were not cured,How well does Metfoprazole work?,null,How well does the combination of Prednicillin and Metfoprazole work?,How well does Prednicillin work?,2,2,4,3,1,63,q4
data_2019-09-03-14-55-13_mfiv6k4jb5,null,+,null,html-keyboard-response,74,194858,0.0-2.0-0.12,NA,NA,NA,NA,NA,NA,NA,NA,NA,NA,NA,NA,NA,NA,NA,NA,NA,NA,NA
data_2019-09-03-14-55-13_mfiv6k4jb5,null,<p>People who took Amoxiloft were cured</p><p>People who took Cymzepam and Losapentin were cured</p>,null,html-keyboard-response,75,199860,0.0-2.0-1.12,C+,AB+,control,C+AB+,TRUE,TRUE,People who took Amoxiloft were cured,People who took Cymzepam and Losapentin were cured,How well does Cymzepam work?,How well does Amoxiloft work?,How well does Losapentin work?,How well does the combination of Cymzepam and Losapentin work?,15,2,1,3,4,NA,NA
data_2019-09-03-14-55-13_mfiv6k4jb5,2560,<p>How well does Cymzepam work?</p>,NA,html-slider-response,76,202421,0.0-2.0-2.12,C+,AB+,control,C+AB+,TRUE,TRUE,People who took Amoxiloft were cured,People who took Cymzepam and Losapentin were cured,How well does Cymzepam work?,How well does Amoxiloft work?,How well does Losapentin work?,How well does the combination of Cymzepam and Losapentin work?,15,2,1,3,4,48,q1
data_2019-09-03-14-55-13_mfiv6k4jb5,1774,<p>How well does Amoxiloft work?</p>,NA,html-slider-response,77,204196,0.0-2.0-3.12,C+,AB+,control,C+AB+,TRUE,TRUE,People who took Amoxiloft were cured,People who took Cymzepam and Losapentin were cured,How well does Cymzepam work?,How well does Amoxiloft work?,How well does Losapentin work?,How well does the combination of Cymzepam and Losapentin work?,15,2,1,3,4,47,q2
data_2019-09-03-14-55-13_mfiv6k4jb5,2983.999999999971,<p>How well does Losapentin work?</p>,NA,html-slider-response,78,207181,0.0-2.0-4.12,C+,AB+,control,C+AB+,TRUE,TRUE,People who took Amoxiloft were cured,People who took Cymzepam and Losapentin were cured,How well does Cymzepam work?,How well does Amoxiloft work?,How well does Losapentin work?,How well does the combination of Cymzepam and Losapentin work?,15,2,1,3,4,54,q3
data_2019-09-03-14-55-13_mfiv6k4jb5,2542,<p>How well does the combination of Cymzepam and Losapentin work?</p>,NA,html-slider-response,79,209724,0.0-2.0-5.12,C+,AB+,control,C+AB+,TRUE,TRUE,People who took Amoxiloft were cured,People who took Cymzepam and Losapentin were cured,How well does Cymzepam work?,How well does Amoxiloft work?,How well does Losapentin work?,How well does the combination of Cymzepam and Losapentin work?,15,2,1,3,4,93,q4
data_2019-09-03-14-55-13_mfiv6k4jb5,null,+,null,html-keyboard-response,80,210226,0.0-2.0-0.13,NA,NA,NA,NA,NA,NA,NA,NA,NA,NA,NA,NA,NA,NA,NA,NA,NA,NA,NA
data_2019-09-03-14-55-13_mfiv6k4jb5,null,<p>People who took Wellbuminophen were not cured</p>,null,html-keyboard-response,81,215228,0.0-2.0-1.13,A-,null,control,A-,FALSE,null,People who took Wellbuminophen were not cured,null,null,How well does Wellbuminophen work?,null,null,10,2,1,3,4,NA,NA
data_2019-09-03-14-55-13_mfiv6k4jb5,null,<p>null</p>,NA,html-slider-response,82,215232,0.0-2.0-2.13,A-,null,control,A-,FALSE,null,People who took Wellbuminophen were not cured,null,null,How well does Wellbuminophen work?,null,null,10,2,1,3,4,null,q1
data_2019-09-03-14-55-13_mfiv6k4jb5,4589.999999999971,<p>How well does Wellbuminophen work?</p>,NA,html-slider-response,83,219823,0.0-2.0-3.13,A-,null,control,A-,FALSE,null,People who took Wellbuminophen were not cured,null,null,How well does Wellbuminophen work?,null,null,10,2,1,3,4,-48,q2
data_2019-09-03-14-55-13_mfiv6k4jb5,null,<p>null</p>,NA,html-slider-response,84,219827,0.0-2.0-4.13,A-,null,control,A-,FALSE,null,People who took Wellbuminophen were not cured,null,null,How well does Wellbuminophen work?,null,null,10,2,1,3,4,null,q3
data_2019-09-03-14-55-13_mfiv6k4jb5,null,<p>null</p>,NA,html-slider-response,85,219839,0.0-2.0-5.13,A-,null,control,A-,FALSE,null,People who took Wellbuminophen were not cured,null,null,How well does Wellbuminophen work?,null,null,10,2,1,3,4,null,q4
data_2019-09-03-14-55-13_mfiv6k4jb5,null,+,null,html-keyboard-response,86,220341,0.0-2.0-0.14,NA,NA,NA,NA,NA,NA,NA,NA,NA,NA,NA,NA,NA,NA,NA,NA,NA,NA,NA
data_2019-09-03-14-55-13_mfiv6k4jb5,null,<p>People who took Viasone and Clonaminophen were cured</p><p>People who took Viasone were not cured</p>,null,html-keyboard-response,87,225343,0.0-2.0-1.14,AB+,A-,experimental,A-AB+,TRUE,FALSE,People who took Viasone and Clonaminophen were cured,People who took Viasone were not cured,How well does Clonaminophen work?,How well does the combination of Viasone and Clonaminophen work?,null,How well does Viasone work?,7,2,3,4,1,NA,NA
data_2019-09-03-14-55-13_mfiv6k4jb5,5190,<p>How well does Clonaminophen work?</p>,NA,html-slider-response,88,230534,0.0-2.0-2.14,AB+,A-,experimental,A-AB+,TRUE,FALSE,People who took Viasone and Clonaminophen were cured,People who took Viasone were not cured,How well does Clonaminophen work?,How well does the combination of Viasone and Clonaminophen work?,null,How well does Viasone work?,7,2,3,4,1,36,q1
data_2019-09-03-14-55-13_mfiv6k4jb5,2469,<p>How well does the combination of Viasone and Clonaminophen work?</p>,NA,html-slider-response,89,233004,0.0-2.0-3.14,AB+,A-,experimental,A-AB+,TRUE,FALSE,People who took Viasone and Clonaminophen were cured,People who took Viasone were not cured,How well does Clonaminophen work?,How well does the combination of Viasone and Clonaminophen work?,null,How well does Viasone work?,7,2,3,4,1,92,q2
data_2019-09-03-14-55-13_mfiv6k4jb5,null,<p>null</p>,NA,html-slider-response,90,233008,0.0-2.0-4.14,AB+,A-,experimental,A-AB+,TRUE,FALSE,People who took Viasone and Clonaminophen were cured,People who took Viasone were not cured,How well does Clonaminophen work?,How well does the combination of Viasone and Clonaminophen work?,null,How well does Viasone work?,7,2,3,4,1,null,q3
data_2019-09-03-14-55-13_mfiv6k4jb5,3025,<p>How well does Viasone work?</p>,NA,html-slider-response,91,236035,0.0-2.0-5.14,AB+,A-,experimental,A-AB+,TRUE,FALSE,People who took Viasone and Clonaminophen were cured,People who took Viasone were not cured,How well does Clonaminophen work?,How well does the combination of Viasone and Clonaminophen work?,null,How well does Viasone work?,7,2,3,4,1,-63,q4
data_2019-09-03-14-55-13_mfiv6k4jb5,null,+,null,html-keyboard-response,92,236536,0.0-2.0-0.15,NA,NA,NA,NA,NA,NA,NA,NA,NA,NA,NA,NA,NA,NA,NA,NA,NA,NA,NA
data_2019-09-03-14-55-13_mfiv6k4jb5,null,<p>People who took Doxyca were not cured</p><p>People who took Doxyca and Cotrin were not cured</p>,null,html-keyboard-response,93,241539,0.0-2.0-1.15,A-,AB-,experimental,A-AB-,FALSE,FALSE,People who took Doxyca were not cured,People who took Doxyca and Cotrin were not cured,How well does Doxyca work?,How well does the combination of Doxyca and Cotrin work?,How well does Cotrin work?,null,4,1,3,2,4,NA,NA
data_2019-09-03-14-55-13_mfiv6k4jb5,2469,<p>How well does Doxyca work?</p>,NA,html-slider-response,94,244008,0.0-2.0-2.15,A-,AB-,experimental,A-AB-,FALSE,FALSE,People who took Doxyca were not cured,People who took Doxyca and Cotrin were not cured,How well does Doxyca work?,How well does the combination of Doxyca and Cotrin work?,How well does Cotrin work?,null,4,1,3,2,4,-48,q1
data_2019-09-03-14-55-13_mfiv6k4jb5,2475,<p>How well does the combination of Doxyca and Cotrin work?</p>,NA,html-slider-response,95,246485,0.0-2.0-3.15,A-,AB-,experimental,A-AB-,FALSE,FALSE,People who took Doxyca were not cured,People who took Doxyca and Cotrin were not cured,How well does Doxyca work?,How well does the combination of Doxyca and Cotrin work?,How well does Cotrin work?,null,4,1,3,2,4,-48,q2
data_2019-09-03-14-55-13_mfiv6k4jb5,2091,<p>How well does Cotrin work?</p>,NA,html-slider-response,96,248577,0.0-2.0-4.15,A-,AB-,experimental,A-AB-,FALSE,FALSE,People who took Doxyca were not cured,People who took Doxyca and Cotrin were not cured,How well does Doxyca work?,How well does the combination of Doxyca and Cotrin work?,How well does Cotrin work?,null,4,1,3,2,4,-54,q3
data_2019-09-03-14-55-13_mfiv6k4jb5,null,<p>null</p>,NA,html-slider-response,97,248581,0.0-2.0-5.15,A-,AB-,experimental,A-AB-,FALSE,FALSE,People who took Doxyca were not cured,People who took Doxyca and Cotrin were not cured,How well does Doxyca work?,How well does the combination of Doxyca and Cotrin work?,How well does Cotrin work?,null,4,1,3,2,4,null,q4
data_2019-09-03-14-55-13_mfiv6k4jb5,null,+,null,html-keyboard-response,98,249082,0.0-2.0-0.16,NA,NA,NA,NA,NA,NA,NA,NA,NA,NA,NA,NA,NA,NA,NA,NA,NA,NA,NA
data_2019-09-03-14-55-13_mfiv6k4jb5,null,<p>People who took Amloprolol and Clindarall were not cured</p><p>People who took Amloprolol were cured</p>,null,html-keyboard-response,99,254084,0.0-2.0-1.16,AB-,A+,experimental,A+AB-,FALSE,TRUE,People who took Amloprolol and Clindarall were not cured,People who took Amloprolol were cured,How well does Amloprolol work?,null,How well does the combination of Amloprolol and Clindarall work?,How well does Clindarall work?,6,1,4,3,2,NA,NA
data_2019-09-03-14-55-13_mfiv6k4jb5,3293,<p>How well does Amloprolol work?</p>,NA,html-slider-response,100,257379,0.0-2.0-2.16,AB-,A+,experimental,A+AB-,FALSE,TRUE,People who took Amloprolol and Clindarall were not cured,People who took Amloprolol were cured,How well does Amloprolol work?,null,How well does the combination of Amloprolol and Clindarall work?,How well does Clindarall work?,6,1,4,3,2,41,q1
data_2019-09-03-14-55-13_mfiv6k4jb5,null,<p>null</p>,NA,html-slider-response,101,257388,0.0-2.0-3.16,AB-,A+,experimental,A+AB-,FALSE,TRUE,People who took Amloprolol and Clindarall were not cured,People who took Amloprolol were cured,How well does Amloprolol work?,null,How well does the combination of Amloprolol and Clindarall work?,How well does Clindarall work?,6,1,4,3,2,null,q2
data_2019-09-03-14-55-13_mfiv6k4jb5,1971,<p>How well does the combination of Amloprolol and Clindarall work?</p>,NA,html-slider-response,102,259360,0.0-2.0-4.16,AB-,A+,experimental,A+AB-,FALSE,TRUE,People who took Amloprolol and Clindarall were not cured,People who took Amloprolol were cured,How well does Amloprolol work?,null,How well does the combination of Amloprolol and Clindarall work?,How well does Clindarall work?,6,1,4,3,2,45,q3
data_2019-09-03-14-55-13_mfiv6k4jb5,1983,<p>How well does Clindarall work?</p>,NA,html-slider-response,103,261344,0.0-2.0-5.16,AB-,A+,experimental,A+AB-,FALSE,TRUE,People who took Amloprolol and Clindarall were not cured,People who took Amloprolol were cured,How well does Amloprolol work?,null,How well does the combination of Amloprolol and Clindarall work?,How well does Clindarall work?,6,1,4,3,2,0,q4
data_2019-09-03-14-55-13_mfiv6k4jb5,null,+,null,html-keyboard-response,104,261845,0.0-2.0-0.17,NA,NA,NA,NA,NA,NA,NA,NA,NA,NA,NA,NA,NA,NA,NA,NA,NA,NA,NA
data_2019-09-03-14-55-13_mfiv6k4jb5,null,<p>People who took Atistatin and Atiloft were cured</p>,null,html-keyboard-response,105,266846,0.0-2.0-1.17,AB+,null,control,AB+,TRUE,null,People who took Atistatin and Atiloft were cured,null,How well does Atistatin work?,How well does the combination of Atistatin and Atiloft work?,null,How well does Atiloft work?,11,1,3,4,2,NA,NA
data_2019-09-03-14-55-13_mfiv6k4jb5,2183,<p>How well does Atistatin work?</p>,NA,html-slider-response,106,269030,0.0-2.0-2.17,AB+,null,control,AB+,TRUE,null,People who took Atistatin and Atiloft were cured,null,How well does Atistatin work?,How well does the combination of Atistatin and Atiloft work?,null,How well does Atiloft work?,11,1,3,4,2,45,q1
data_2019-09-03-14-55-13_mfiv6k4jb5,2605,<p>How well does the combination of Atistatin and Atiloft work?</p>,NA,html-slider-response,107,271637,0.0-2.0-3.17,AB+,null,control,AB+,TRUE,null,People who took Atistatin and Atiloft were cured,null,How well does Atistatin work?,How well does the combination of Atistatin and Atiloft work?,null,How well does Atiloft work?,11,1,3,4,2,92,q2
data_2019-09-03-14-55-13_mfiv6k4jb5,null,<p>null</p>,NA,html-slider-response,108,271639,0.0-2.0-4.17,AB+,null,control,AB+,TRUE,null,People who took Atistatin and Atiloft were cured,null,How well does Atistatin work?,How well does the combination of Atistatin and Atiloft work?,null,How well does Atiloft work?,11,1,3,4,2,null,q3
data_2019-09-03-14-55-13_mfiv6k4jb5,3061,<p>How well does Atiloft work?</p>,NA,html-slider-response,109,274702,0.0-2.0-5.17,AB+,null,control,AB+,TRUE,null,People who took Atistatin and Atiloft were cured,null,How well does Atistatin work?,How well does the combination of Atistatin and Atiloft work?,null,How well does Atiloft work?,11,1,3,4,2,44,q4
data_2019-09-03-14-55-13_mfiv6k4jb5,null,+,null,html-keyboard-response,110,275203,0.0-2.0-0.18,NA,NA,NA,NA,NA,NA,NA,NA,NA,NA,NA,NA,NA,NA,NA,NA,NA,NA,NA
data_2019-09-03-14-55-13_mfiv6k4jb5,null,<p>People who took Doxytan and Amlopam were cured</p><p>People who took Cymdeine were cured</p>,null,html-keyboard-response,111,280205,0.0-2.0-1.18,AB+,C+,control,C+AB+,TRUE,TRUE,People who took Doxytan and Amlopam were cured,People who took Cymdeine were cured,How well does Doxytan work?,How well does Amlopam work?,null,How well does the combination of Doxytan and Amlopam work?,19,1,2,4,3,NA,NA
data_2019-09-03-14-55-13_mfiv6k4jb5,2368,<p>How well does Doxytan work?</p>,NA,html-slider-response,112,282577,0.0-2.0-2.18,AB+,C+,control,C+AB+,TRUE,TRUE,People who took Doxytan and Amlopam were cured,People who took Cymdeine were cured,How well does Doxytan work?,How well does Amlopam work?,null,How well does the combination of Doxytan and Amlopam work?,19,1,2,4,3,51,q1
data_2019-09-03-14-55-13_mfiv6k4jb5,1884,<p>How well does Amlopam work?</p>,NA,html-slider-response,113,284462,0.0-2.0-3.18,AB+,C+,control,C+AB+,TRUE,TRUE,People who took Doxytan and Amlopam were cured,People who took Cymdeine were cured,How well does Doxytan work?,How well does Amlopam work?,null,How well does the combination of Doxytan and Amlopam work?,19,1,2,4,3,50,q2
data_2019-09-03-14-55-13_mfiv6k4jb5,null,<p>null</p>,NA,html-slider-response,114,284464,0.0-2.0-4.18,AB+,C+,control,C+AB+,TRUE,TRUE,People who took Doxytan and Amlopam were cured,People who took Cymdeine were cured,How well does Doxytan work?,How well does Amlopam work?,null,How well does the combination of Doxytan and Amlopam work?,19,1,2,4,3,null,q3
data_2019-09-03-14-55-13_mfiv6k4jb5,2247,<p>How well does the combination of Doxytan and Amlopam work?</p>,NA,html-slider-response,115,286712,0.0-2.0-5.18,AB+,C+,control,C+AB+,TRUE,TRUE,People who took Doxytan and Amlopam were cured,People who took Cymdeine were cured,How well does Doxytan work?,How well does Amlopam work?,null,How well does the combination of Doxytan and Amlopam work?,19,1,2,4,3,91,q4
data_2019-09-03-14-55-13_mfiv6k4jb5,null,+,null,html-keyboard-response,116,287213,0.0-2.0-0.19,NA,NA,NA,NA,NA,NA,NA,NA,NA,NA,NA,NA,NA,NA,NA,NA,NA,NA,NA
data_2019-09-03-14-55-13_mfiv6k4jb5,null,<p>People who took Gabaprolol and Acetabenzaprine were not cured</p><p>People who took Xapro were cured</p>,null,html-keyboard-response,117,292215,0.0-2.0-1.19,AB-,C+,control,C+AB-,FALSE,TRUE,People who took Gabaprolol and Acetabenzaprine were not cured,People who took Xapro were cured,How well does Acetabenzaprine work?,null,How well does the combination of Gabaprolol and Acetabenzaprine work?,How well does Gabaprolol work?,20,2,4,3,1,NA,NA
data_2019-09-03-14-55-13_mfiv6k4jb5,2723,<p>How well does Acetabenzaprine work?</p>,NA,html-slider-response,118,294938,0.0-2.0-2.19,AB-,C+,control,C+AB-,FALSE,TRUE,People who took Gabaprolol and Acetabenzaprine were not cured,People who took Xapro were cured,How well does Acetabenzaprine work?,null,How well does the combination of Gabaprolol and Acetabenzaprine work?,How well does Gabaprolol work?,20,2,4,3,1,0,q1
data_2019-09-03-14-55-13_mfiv6k4jb5,null,<p>null</p>,NA,html-slider-response,119,294941,0.0-2.0-3.19,AB-,C+,control,C+AB-,FALSE,TRUE,People who took Gabaprolol and Acetabenzaprine were not cured,People who took Xapro were cured,How well does Acetabenzaprine work?,null,How well does the combination of Gabaprolol and Acetabenzaprine work?,How well does Gabaprolol work?,20,2,4,3,1,null,q2
data_2019-09-03-14-55-13_mfiv6k4jb5,1018,<p>How well does the combination of Gabaprolol and Acetabenzaprine work?</p>,NA,html-slider-response,120,295959,0.0-2.0-4.19,AB-,C+,control,C+AB-,FALSE,TRUE,People who took Gabaprolol and Acetabenzaprine were not cured,People who took Xapro were cured,How well does Acetabenzaprine work?,null,How well does the combination of Gabaprolol and Acetabenzaprine work?,How well does Gabaprolol work?,20,2,4,3,1,0,q3
data_2019-09-03-14-55-13_mfiv6k4jb5,1728,<p>How well does Gabaprolol work?</p>,NA,html-slider-response,121,297687,0.0-2.0-5.19,AB-,C+,control,C+AB-,FALSE,TRUE,People who took Gabaprolol and Acetabenzaprine were not cured,People who took Xapro were cured,How well does Acetabenzaprine work?,null,How well does the combination of Gabaprolol and Acetabenzaprine work?,How well does Gabaprolol work?,20,2,4,3,1,0,q4
data_2019-09-03-14-55-13_mfiv6k4jb5,null,+,null,html-keyboard-response,122,298189,0.0-2.0-0.20,NA,NA,NA,NA,NA,NA,NA,NA,NA,NA,NA,NA,NA,NA,NA,NA,NA,NA,NA
data_2019-09-03-14-55-13_mfiv6k4jb5,null,<p>People who took Atorvaprolol were not cured</p><p>People who took Atorvaprolol and Lorataprazole were cured</p>,null,html-keyboard-response,123,303190,0.0-2.0-1.20,A-,AB+,experimental,A-AB+,FALSE,TRUE,People who took Atorvaprolol were not cured,People who took Atorvaprolol and Lorataprazole were cured,How well does Lorataprazole work?,How well does the combination of Atorvaprolol and Lorataprazole work?,null,How well does Atorvaprolol work?,3,2,3,4,1,NA,NA
data_2019-09-03-14-55-13_mfiv6k4jb5,2367,<p>How well does Lorataprazole work?</p>,NA,html-slider-response,124,305558,0.0-2.0-2.20,A-,AB+,experimental,A-AB+,FALSE,TRUE,People who took Atorvaprolol were not cured,People who took Atorvaprolol and Lorataprazole were cured,How well does Lorataprazole work?,How well does the combination of Atorvaprolol and Lorataprazole work?,null,How well does Atorvaprolol work?,3,2,3,4,1,45,q1
data_2019-09-03-14-55-13_mfiv6k4jb5,2724,<p>How well does the combination of Atorvaprolol and Lorataprazole work?</p>,NA,html-slider-response,125,308282,0.0-2.0-3.20,A-,AB+,experimental,A-AB+,FALSE,TRUE,People who took Atorvaprolol were not cured,People who took Atorvaprolol and Lorataprazole were cured,How well does Lorataprazole work?,How well does the combination of Atorvaprolol and Lorataprazole work?,null,How well does Atorvaprolol work?,3,2,3,4,1,98,q2
data_2019-09-03-14-55-13_mfiv6k4jb5,null,<p>null</p>,NA,html-slider-response,126,308285,0.0-2.0-4.20,A-,AB+,experimental,A-AB+,FALSE,TRUE,People who took Atorvaprolol were not cured,People who took Atorvaprolol and Lorataprazole were cured,How well does Lorataprazole work?,How well does the combination of Atorvaprolol and Lorataprazole work?,null,How well does Atorvaprolol work?,3,2,3,4,1,null,q3
data_2019-09-03-14-55-13_mfiv6k4jb5,2618,<p>How well does Atorvaprolol work?</p>,NA,html-slider-response,127,310904,0.0-2.0-5.20,A-,AB+,experimental,A-AB+,FALSE,TRUE,People who took Atorvaprolol were not cured,People who took Atorvaprolol and Lorataprazole were cured,How well does Lorataprazole work?,How well does the combination of Atorvaprolol and Lorataprazole work?,null,How well does Atorvaprolol work?,3,2,3,4,1,-53,q4
data_2019-09-03-14-55-13_mfiv6k4jb5,null,+,null,html-keyboard-response,128,311406,0.0-2.0-0.21,NA,NA,NA,NA,NA,NA,NA,NA,NA,NA,NA,NA,NA,NA,NA,NA,NA,NA,NA
data_2019-09-03-14-55-13_mfiv6k4jb5,null,<p>People who took Cofloxacin were not cured</p><p>People who took Cycloprofen and Citaloloft were not cured</p>,null,html-keyboard-response,129,316408,0.0-2.0-1.21,C-,AB-,control,C-AB-,FALSE,FALSE,People who took Cofloxacin were not cured,People who took Cycloprofen and Citaloloft were not cured,How well does Citaloloft work?,How well does Cofloxacin work?,How well does the combination of Cycloprofen and Citaloloft work?,How well does Cycloprofen work?,18,3,1,4,2,NA,NA
data_2019-09-03-14-55-13_mfiv6k4jb5,3945,<p>How well does Citaloloft work?</p>,NA,html-slider-response,130,320354,0.0-2.0-2.21,C-,AB-,control,C-AB-,FALSE,FALSE,People who took Cofloxacin were not cured,People who took Cycloprofen and Citaloloft were not cured,How well does Citaloloft work?,How well does Cofloxacin work?,How well does the combination of Cycloprofen and Citaloloft work?,How well does Cycloprofen work?,18,3,1,4,2,-51,q1
data_2019-09-03-14-55-13_mfiv6k4jb5,2169,<p>How well does Cofloxacin work?</p>,NA,html-slider-response,131,322524,0.0-2.0-3.21,C-,AB-,control,C-AB-,FALSE,FALSE,People who took Cofloxacin were not cured,People who took Cycloprofen and Citaloloft were not cured,How well does Citaloloft work?,How well does Cofloxacin work?,How well does the combination of Cycloprofen and Citaloloft work?,How well does Cycloprofen work?,18,3,1,4,2,-55,q2
data_2019-09-03-14-55-13_mfiv6k4jb5,2443,<p>How well does the combination of Cycloprofen and Citaloloft work?</p>,NA,html-slider-response,132,324969,0.0-2.0-4.21,C-,AB-,control,C-AB-,FALSE,FALSE,People who took Cofloxacin were not cured,People who took Cycloprofen and Citaloloft were not cured,How well does Citaloloft work?,How well does Cofloxacin work?,How well does the combination of Cycloprofen and Citaloloft work?,How well does Cycloprofen work?,18,3,1,4,2,-53,q3
data_2019-09-03-14-55-13_mfiv6k4jb5,3640,<p>How well does Cycloprofen work?</p>,NA,html-slider-response,133,328609,0.0-2.0-5.21,C-,AB-,control,C-AB-,FALSE,FALSE,People who took Cofloxacin were not cured,People who took Cycloprofen and Citaloloft were not cured,How well does Citaloloft work?,How well does Cofloxacin work?,How well does the combination of Cycloprofen and Citaloloft work?,How well does Cycloprofen work?,18,3,1,4,2,-57,q4
